time,seconds_elapsed,z,y,x
1728905892151481300,0.1244814453125,3.0311126708984375,1.7399282455444336,-2.7382612228393555
1728905892161481200,0.134481201171875,2.543668746948242,2.1725592613220215,-2.676701545715332
1728905892171481300,0.1444814453125,0.7083978652954102,1.350285530090332,-2.83323335647583
1728905892181481200,0.154481201171875,-0.9421482086181641,0.14030909538269043,-2.9832377433776855
1728905892191481300,0.1644814453125,-2.2960829734802246,-0.9942831993103027,-3.362856388092041
1728905892201481200,0.174481201171875,-2.831529140472412,-1.7809771299362183,-3.5687947273254395
1728905892211481300,0.1844814453125,-3.400434970855713,-3.0122599601745605,-3.5951120853424072
1728905892221478000,0.194477783203125,-1.7580680847167969,-4.230008602142334,-3.848601818084717
1728905892231477800,0.204477783203125,-2.7493386268615723,-5.793646812438965,-3.5820751190185547
1728905892241478000,0.214477783203125,-3.11875581741333,-6.542699813842773,-2.8183557987213135
1728905892251477800,0.224477783203125,-4.519200801849365,-6.284069061279297,-2.41078519821167
1728905892261478400,0.234478515625,-3.9142491817474365,-4.940593719482422,-0.7861909866333008
1728905892271478500,0.244478515625,-2.697509288787842,-3.8127481937408447,-0.22835254669189453
1728905892281478400,0.254478515625,-1.7925429344177246,-3.3088912963867188,-0.6399471759796143
1728905892291478500,0.264478515625,-1.3730416297912598,-2.613299608230591,-0.6750931739807129
1728905892301478400,0.274478515625,-0.9967532157897949,-1.9892282485961914,-0.624354362487793
1728905892311478500,0.284478515625,0.16649484634399414,-1.7861328125,-0.14406442642211914
1728905892321478400,0.294478515625,2.0079774856567383,-1.9971873760223389,0.45871734619140625
1728905892331478500,0.304478515625,3.1405181884765625,-2.0771899223327637,0.9338417053222656
1728905892341478400,0.314478515625,3.0460171699523926,-1.6595594882965088,1.4733128547668457
1728905892351478500,0.324478515625,2.4643726348876953,-0.8391051292419434,2.051762104034424
1728905892361478400,0.334478515625,1.7973370552062988,0.10337686538696289,2.455376148223877
1728905892371478500,0.344478515625,0.9448337554931641,1.3056073188781738,2.258474349975586
1728905892381478700,0.354478759765625,3.4774632453918457,2.410477638244629,2.871426582336426
1728905892391478500,0.364478515625,5.88300895690918,3.117623805999756,3.774902820587158
1728905892401478700,0.374478759765625,3.6599884033203125,2.2362804412841797,2.7257423400878906
1728905892411478500,0.384478515625,1.3709907531738281,1.4992592334747314,1.6652288436889648
1728905892421478700,0.394478759765625,1.2531309127807617,2.2901523113250732,1.8278369903564453
1728905892431478500,0.404478515625,0.8099985122680664,3.678515672683716,2.931333541870117
1728905892441478700,0.414478759765625,-0.17254209518432617,4.82331657409668,3.3571300506591797
1728905892451478500,0.424478515625,-0.24616336822509766,5.991761207580566,5.206554412841797
1728905892461478700,0.434478759765625,-0.4181385040283203,6.7104997634887695,6.013921737670898
1728905892471478500,0.444478515625,1.8905029296875,8.861990928649902,6.210777282714844
1728905892481478700,0.454478759765625,-2.19228196144104,4.006426811218262,5.635766983032227
1728905892491478500,0.464478515625,-2.934962749481201,3.0513358116149902,4.268858909606934
1728905892501478700,0.474478759765625,-4.733627796173096,2.059896230697632,3.072999954223633
1728905892511478800,0.484478759765625,-6.637688636779785,0.8917999267578125,1.5099515914916992
1728905892521479400,0.4944794921875,-7.246408939361572,0.2805368900299072,0.37510204315185547
1728905892531479600,0.5044794921875,-4.189983367919922,0.03902029991149902,-0.7913670539855957
1728905892541479400,0.5144794921875,-0.7822422981262207,-0.41294336318969727,-1.2959461212158203
1728905892551479600,0.5244794921875,0.1966414451599121,-1.1865321397781372,-1.1847739219665527
1728905892561479200,0.534479248046875,0.24471807479858398,-1.573236107826233,-0.4260292053222656
1728905892571479300,0.544479248046875,-0.1934514045715332,-1.9930367469787598,-0.9456949234008789
1728905892581479200,0.554479248046875,-1.3290033340454102,-0.9176309108734131,-0.545130729675293
1728905892591479300,0.564479248046875,-1.5444598197937012,-0.6293056011199951,-0.4216933250427246
1728905892601479200,0.574479248046875,-0.14574766159057617,-0.08125090599060059,0.4076967239379883
1728905892611479300,0.584479248046875,0.5544576644897461,-0.18062639236450195,-0.057114601135253906
1728905892621479200,0.594479248046875,0.8682827949523926,-0.4302331209182739,-0.23502302169799805
1728905892631479300,0.604479248046875,0.960237979888916,0.5612049102783203,1.7776422500610352
1728905892641479200,0.614479248046875,2.8501992225646973,0.13458466529846191,1.8828935623168945
1728905892651479300,0.624479248046875,2.4905219078063965,-0.6800094842910767,1.4576797485351562
1728905892661479200,0.634479248046875,10.215136528015137,-3.5369625091552734,7.096981048583984
1728905892671479300,0.644479248046875,1.3081932067871094,-0.9028000831604004,0.13880348205566406
1728905892681479200,0.654479248046875,-0.32165026664733887,-2.879176616668701,1.8040485382080078
1728905892691479300,0.664479248046875,0.4180586338043213,-2.433321952819824,0.7981424331665039
1728905892701479200,0.674479248046875,-0.745286226272583,-1.7684886455535889,1.2944364547729492
1728905892711479300,0.684479248046875,-1.065868854522705,-2.7366559505462646,1.7445716857910156
1728905892721479200,0.694479248046875,-1.1761534214019775,-2.8024404048919678,1.4980926513671875
1728905892731479300,0.704479248046875,-0.4294865131378174,-4.0594987869262695,2.05926513671875
1728905892741479200,0.714479248046875,0.3765132427215576,-4.53668212890625,2.150747299194336
1728905892751479300,0.724479248046875,1.5524301528930664,-4.638992786407471,1.4303131103515625
1728905892761479400,0.7344794921875,1.767864465713501,-5.618361473083496,1.4896001815795898
1728905892771478800,0.744478759765625,1.3813166618347168,-4.623870849609375,0.1443777084350586
1728905892781478100,0.75447802734375,0.0682525634765625,-3.7609286308288574,0.38404369354248047
1728905892791477800,0.764477783203125,-1.5959675312042236,-3.507824420928955,0.59051513671875
1728905892801477400,0.774477294921875,-3.726935386657715,-1.7029154300689697,0.699005126953125
1728905892811476700,0.784476806640625,-3.378878593444824,-1.303175449371338,1.2393341064453125
1728905892821476400,0.794476318359375,-2.5360984802246094,0.38696354627609253,0.8722562789916992
1728905892831476000,0.80447607421875,-2.75154709815979,2.153966188430786,1.5960636138916016
1728905892841475800,0.814475830078125,-2.816603422164917,2.3375868797302246,1.6161537170410156
1728905892851476000,0.82447607421875,-2.174046039581299,6.747354984283447,3.745929718017578
1728905892861475800,0.834475830078125,-2.504483222961426,8.772711753845215,3.8923158645629883
1728905892871475700,0.844475830078125,-3.307633638381958,10.438681602478027,3.953958511352539
1728905892881475800,0.854475830078125,-3.136715888977051,11.415262222290039,4.165875434875488
1728905892891475700,0.864475830078125,-1.932365894317627,11.399821281433105,3.563966751098633
1728905892901475600,0.8744755859375,-1.3567488193511963,11.752850532531738,3.722867965698242
1728905892911475500,0.884475341796875,0.015177249908447266,10.577221870422363,3.5256919860839844
1728905892921475000,0.89447509765625,2.7621841430664062,9.130504608154297,2.214872360229492
1728905892931475000,0.904474853515625,5.492581367492676,8.068178176879883,0.0750875473022461
1728905892941474600,0.914474609375,6.13543701171875,8.100110054016113,-0.4527311325073242
1728905892951474200,0.92447412109375,6.656684875488281,8.549882888793945,0.24305152893066406
1728905892961473800,0.934473876953125,6.75479793548584,8.140644073486328,0.04504585266113281
1728905892971473400,0.944473388671875,5.283072471618652,7.23104190826416,-1.600400447845459
1728905892981473000,0.95447314453125,2.7433698177337646,6.114492416381836,-3.2465596199035645
1728905892991472400,0.964472412109375,0.9231472015380859,4.525178909301758,-3.514397621154785
1728905893001471700,0.9744716796875,-0.5267807245254517,2.4188270568847656,-1.8316864967346191
1728905893011471400,0.984471435546875,-1.5357857942581177,-1.301621675491333,-0.8765058517456055
1728905893021470700,0.994470703125,-0.5051017999649048,-4.3411760330200195,0.6564559936523438
1728905893031469800,1.0044697265625,2.4288113117218018,-6.481091499328613,-0.7624931335449219
1728905893041469200,1.01446923828125,4.201874256134033,-7.324332237243652,-4.202668190002441
1728905893051468500,1.024468505859375,4.275103569030762,-7.133716106414795,-6.110601902008057
1728905893061467400,1.03446728515625,1.8945696353912354,-5.67963981628418,-6.696366786956787
1728905893071467000,1.044467041015625,-0.4059765338897705,-4.3555426597595215,-3.659677028656006
1728905893081466000,1.054466064453125,-1.1391634941101074,-3.6582484245300293,-1.6060805320739746
1728905893091465500,1.064465576171875,-1.794163465499878,-4.415070533752441,-3.695495128631592
1728905893101464300,1.07446435546875,-0.35723352432250977,-3.7065634727478027,-1.2756214141845703
1728905893111463000,1.084462890625,1.1949939727783203,-3.037144184112549,-1.9715619087219238
1728905893121462300,1.094462158203125,1.7697372436523438,-2.0040907859802246,-0.9122076034545898
1728905893131460900,1.1044609375,1.711845874786377,-2.692887306213379,-0.899162769317627
1728905893141459200,1.114459228515625,-0.26091575622558594,-3.4486188888549805,-1.3749208450317383
1728905893151457500,1.12445751953125,-2.504011631011963,-3.5817980766296387,-0.5428900718688965
1728905893161456400,1.134456298828125,-3.526113510131836,-3.4256293773651123,-0.5676822662353516
1728905893171454500,1.144454345703125,-2.381395101547241,-3.018717050552368,-0.0856161117553711
1728905893181453300,1.154453369140625,-0.23810386657714844,-1.8430805206298828,0.07044649124145508
1728905893191452000,1.164451904296875,2.2160520553588867,-0.9653897285461426,0.3786892890930176
1728905893201450500,1.174450439453125,2.969559669494629,-0.7097206115722656,-0.2252025604248047
1728905893211449300,1.184449462890625,2.0717034339904785,-1.5307154655456543,-0.5455265045166016
1728905893221448200,1.1944482421875,0.6736416816711426,-2.128898859024048,-0.885685920715332
1728905893231446300,1.2044462890625,-0.026283740997314453,-2.2270219326019287,-0.9804325103759766
1728905893241445000,1.214445068359375,-0.31922435760498047,-1.7906756401062012,-1.13264799118042
1728905893251443000,1.22444287109375,0.18311643600463867,-1.4779510498046875,-0.564572811126709
1728905893261441800,1.23444189453125,0.16930866241455078,-1.1830072402954102,-0.2972846031188965
1728905893271440400,1.2444404296875,0.754302978515625,-1.2297115325927734,0.43317270278930664
1728905893281439200,1.254439208984375,2.253126621246338,-1.51277494430542,1.2067351341247559
1728905893291438000,1.26443798828125,2.376110553741455,-1.3891115188598633,1.5197491645812988
1728905893301436700,1.274436767578125,1.8674607276916504,-1.6125059127807617,1.6434354782104492
1728905893311435500,1.284435546875,1.125246524810791,-1.0118780136108398,1.0483207702636719
1728905893321434400,1.294434326171875,1.7332959175109863,-1.064955234527588,1.311884880065918
1728905893331433000,1.304432861328125,3.343397617340088,-1.9177865982055664,1.8632001876831055
1728905893341431800,1.314431884765625,2.9715399742126465,-2.5095114707946777,0.033182621002197266
1728905893351430400,1.324430419921875,0.7527589797973633,-3.812154769897461,-1.095292568206787
1728905893361428500,1.334428466796875,-1.263899803161621,-6.581151962280273,-0.7183189392089844
1728905893371427000,1.344427001953125,-3.933293342590332,-7.542669296264648,-2.809283494949341
1728905893381426400,1.354426513671875,-4.530858039855957,-5.919990539550781,-4.6767988204956055
1728905893391425300,1.36442529296875,-4.282118797302246,-6.690554618835449,-3.3579585552215576
1728905893401424600,1.374424560546875,-2.8337817192077637,-3.232377052307129,-0.07495641708374023
1728905893411424300,1.38442431640625,-4.002685546875,2.8593225479125977,6.249251365661621
1728905893421422600,1.394422607421875,-8.424399375915527,6.0619378089904785,-0.47049617767333984
1728905893431421400,1.40442138671875,-8.311988830566406,6.6720170974731445,4.261241912841797
1728905893441420000,1.414419921875,-3.2899816036224365,3.7722549438476562,1.6446118354797363
1728905893451419100,1.424419189453125,-0.7034904360771179,-0.9632277488708496,-2.313612461090088
1728905893461418000,1.43441796875,8.257538795471191,-0.12920904159545898,-6.988547325134277
1728905893471417300,1.444417236328125,2.5972838401794434,1.2073822021484375,-2.156491756439209
1728905893481415400,1.45441552734375,-7.745763301849365,-4.180353164672852,0.6805672645568848
1728905893491414000,1.4644140625,-2.9636409282684326,-0.746159553527832,4.689381122589111
1728905893501412900,1.474412841796875,-4.07774019241333,3.816925525665283,5.339722633361816
1728905893511411500,1.484411376953125,-4.578131675720215,8.759624481201172,3.7209463119506836
1728905893521410300,1.494410400390625,-9.704286575317383,7.959207057952881,3.228215217590332
1728905893531409700,1.50440966796875,-6.519146919250488,3.932644844055176,2.3906922340393066
1728905893541408300,1.514408203125,-4.420022964477539,1.118079662322998,0.4152717590332031
1728905893551407900,1.524407958984375,-0.5646923780441284,-3.278386116027832,-1.8022723197937012
1728905893561406500,1.534406494140625,0.1536247730255127,-5.193728923797607,-3.432058334350586
1728905893571405300,1.5444052734375,0.649095892906189,-3.8870689868927,-2.7920708656311035
1728905893581404200,1.554404052734375,2.848949909210205,-2.713686227798462,-3.134021282196045
1728905893591402800,1.56440283203125,4.824342250823975,-0.3057727813720703,-2.643890857696533
1728905893601401300,1.5744013671875,1.8059937953948975,1.2991619110107422,-0.8631668090820312
1728905893611400200,1.584400146484375,-4.749866008758545,5.400864124298096,8.40198802947998
1728905893621398800,1.594398681640625,-4.185188293457031,6.259099960327148,3.8351545333862305
1728905893631397600,1.604397705078125,-2.027040481567383,4.359637260437012,1.0667963027954102
1728905893641396200,1.614396240234375,0.19862473011016846,2.1133670806884766,1.540806770324707
1728905893651394300,1.624394287109375,1.3703402280807495,-0.6972603797912598,1.441070556640625
1728905893661393400,1.634393310546875,3.01259183883667,-2.267597198486328,-0.17195987701416016
1728905893671392500,1.644392578125,0.7197603583335876,-1.559673547744751,-0.025608062744140625
1728905893681391000,1.65439111328125,0.6121422052383423,0.7287740707397461,-1.340531349182129
1728905893691390000,1.664389892578125,0.0742119550704956,2.0902981758117676,-0.43904781341552734
1728905893701388500,1.674388427734375,-1.896458387374878,2.639468193054199,-0.08215618133544922
1728905893711387400,1.684387451171875,-1.9249542951583862,2.663578987121582,-0.09947872161865234
1728905893721386500,1.694386474609375,0.32825684547424316,-0.19053077697753906,-2.0057621002197266
1728905893731385900,1.7043857421875,1.178499460220337,0.2209010124206543,-3.3815460205078125
1728905893741385500,1.714385498046875,2.001797676086426,0.43520164489746094,-4.475490570068359
1728905893751384300,1.72438427734375,2.3058884143829346,0.18743324279785156,-3.5784077644348145
1728905893761383000,1.7343828125,2.7657785415649414,0.37802553176879883,-3.306288719177246
1728905893771381800,1.7443818359375,2.255934238433838,0.27446842193603516,-1.4996461868286133
1728905893781381000,1.754381103515625,0.7178365588188171,0.13483572006225586,-0.8524212837219238
1728905893791380000,1.7643798828125,0.8223296999931335,0.27188587188720703,-0.8959612846374512
1728905893801378800,1.77437890625,-0.9674960374832153,-0.17096972465515137,-0.3089475631713867
1728905893811377400,1.78437744140625,-4.363790988922119,0.15136384963989258,0.9719314575195312
1728905893821376300,1.794376220703125,-4.026518821716309,0.7461516857147217,0.161346435546875
1728905893831375000,1.804375,-0.749112606048584,1.5193302631378174,-0.34073925018310547
1728905893841373700,1.814373779296875,1.954754114151001,1.910834550857544,-1.3039932250976562
1728905893851372500,1.82437255859375,2.9334354400634766,2.689645528793335,0.42441272735595703
1728905893861371400,1.834371337890625,-1.9830307960510254,1.5160152912139893,-0.4600505828857422
1728905893871370000,1.844369873046875,-0.9905893802642822,1.3277018070220947,1.3577766418457031
1728905893881368300,1.854368408203125,-0.5325582027435303,2.812711477279663,1.0224905014038086
1728905893891367200,1.8643671875,-1.0259983539581299,2.480052947998047,1.3601579666137695
1728905893901365800,1.87436572265625,-1.8718862533569336,1.4039831161499023,1.7834882736206055
1728905893911364600,1.884364501953125,-0.5120067596435547,0.26430654525756836,1.6618900299072266
1728905893921362400,1.894362548828125,0.30217552185058594,0.28753042221069336,0.23648357391357422
1728905893931361300,1.904361328125,0.6913480758666992,0.3047158718109131,0.2130289077758789
1728905893941360400,1.9143603515625,-0.9953222274780273,-0.06163144111633301,0.5278234481811523
1728905893951359700,1.92435986328125,-1.6014642715454102,-0.3150753974914551,0.6121110916137695
1728905893961359400,1.934359375,-0.5842776298522949,-0.3951568603515625,0.03434181213378906
1728905893971358000,1.94435791015625,-0.15349078178405762,-0.07219243049621582,-0.06052589416503906
1728905893981356800,1.954356689453125,-0.5022978782653809,0.2270522117614746,-0.0069026947021484375
1728905893991355600,1.964355712890625,0.03014063835144043,0.21696782112121582,0.18703269958496094
1728905894001354500,1.9743544921875,0.026045560836791992,0.6379585266113281,0.4995002746582031
1728905894011353300,1.984353271484375,-1.684950590133667,0.4192938804626465,1.1275548934936523
1728905894021352200,1.994352294921875,-1.9343693256378174,0.08461380004882812,0.5357780456542969
1728905894031351000,2.00435107421875,0.6799533367156982,-0.1757352352142334,0.40394020080566406
1728905894041350000,2.014349853515625,-0.8410689830780029,-0.5286977291107178,0.9765481948852539
1728905894051348700,2.0243486328125,-0.7045695781707764,-0.5947389602661133,1.1538734436035156
1728905894061347600,2.03434765625,-1.4773013591766357,-0.8224823474884033,1.893218994140625
1728905894071346400,2.044346435546875,-0.37005138397216797,0.7219593524932861,1.2236337661743164
1728905894081344800,2.0543447265625,-2.565044403076172,-3.3487300872802734,-1.8442659378051758
1728905894091343000,2.064343017578125,-3.118755578994751,-2.513373374938965,-2.4752936363220215
1728905894101341200,2.074341064453125,-2.6173508167266846,0.7819292545318604,-0.38808631896972656
1728905894111340000,2.084340087890625,4.361447334289551,0.4419102668762207,2.420342445373535
1728905894121339000,2.0943388671875,4.070255756378174,1.1944324970245361,-2.5186119079589844
1728905894131337700,2.104337646484375,-3.7158901691436768,0.7562899589538574,-3.1033473014831543
1728905894141336600,2.114336669921875,1.1048381328582764,3.2561697959899902,2.02425479888916
1728905894151335400,2.12433544921875,2.1472625732421875,2.1225039958953857,4.319474220275879
1728905894161334300,2.134334228515625,8.74019718170166,1.6230638027191162,4.847161293029785
1728905894171333000,2.1443330078125,-0.6960515975952148,-3.876307725906372,-5.162901401519775
1728905894181332500,2.15433251953125,-3.301992177963257,-4.4267778396606445,-8.956743240356445
1728905894191331300,2.164331298828125,-1.79315185546875,-2.90409517288208,-0.9573016166687012
1728905894201330200,2.174330078125,1.188299298286438,-2.757479667663574,-1.3357982635498047
1728905894211329000,2.1843291015625,0.41948890686035156,-5.029829978942871,-0.18125534057617188
1728905894221328600,2.19432861328125,0.5488090515136719,-4.972107410430908,-4.323549270629883
1728905894231327500,2.204327392578125,-1.300036907196045,-4.918575763702393,-1.4245824813842773
1728905894241326000,2.214326171875,-2.522256374359131,-2.5679807662963867,2.210991859436035
1728905894251325000,2.224324951171875,-1.5634362697601318,0.791597843170166,1.193354606628418
1728905894261323500,2.234323486328125,0.06970739364624023,4.385501861572266,-5.042934417724609
1728905894271322400,2.244322265625,-0.4252002239227295,3.579151153564453,-3.702585220336914
1728905894281321000,2.254321044921875,0.31342577934265137,2.5817208290100098,-1.9996938705444336
1728905894291319800,2.26431982421875,3.3723926544189453,1.4855122566223145,-2.9849023818969727
1728905894301318000,2.27431787109375,2.2157480716705322,0.3391892910003662,-2.570786476135254
1728905894311316500,2.28431640625,-0.6891872882843018,0.5679745674133301,-1.2173266410827637
1728905894321315300,2.2943154296875,-1.9075396060943604,-0.6976118087768555,0.299285888671875
1728905894331314200,2.304314208984375,-0.9440293312072754,-0.08944916725158691,0.12987709045410156
1728905894341312800,2.314312744140625,-1.275346040725708,3.618053674697876,0.20476150512695312
1728905894351311600,2.3243115234375,2.5089478492736816,4.127734184265137,1.5883684158325195
1728905894361310200,2.334310302734375,3.4593725204467773,4.687352180480957,0.7031412124633789
1728905894371309000,2.34430908203125,3.1527907848358154,4.5100226402282715,0.7298755645751953
1728905894381308200,2.35430810546875,2.091419219970703,3.8212313652038574,0.8536233901977539
1728905894391307800,2.364307861328125,0.8367377519607544,2.7366275787353516,0.011956214904785156
1728905894401307100,2.37430712890625,0.6673678159713745,2.6730270385742188,1.8949661254882812
1728905894411306000,2.384305908203125,-2.6630733013153076,3.0384578704833984,4.651257514953613
1728905894421304600,2.3943046875,-2.0240883827209473,1.986341953277588,4.645130157470703
1728905894431303400,2.404303466796875,0.5288503170013428,1.157149076461792,3.7859153747558594
1728905894441302300,2.41430224609375,2.128021001815796,0.897010326385498,4.845362663269043
1728905894451300900,2.42430078125,0.6607939004898071,0.42525577545166016,3.030750274658203
1728905894461299700,2.4342998046875,0.04541468620300293,0.8676145076751709,0.8732109069824219
1728905894471298600,2.444298583984375,0.9698247313499451,0.38280439376831055,-0.3731403350830078
1728905894481297200,2.454297119140625,3.145007610321045,0.4036288261413574,-3.221853256225586
1728905894491296000,2.4642958984375,3.7454147338867188,-0.21132469177246094,-5.272051811218262
1728905894501294600,2.474294677734375,-1.3655365705490112,-0.11007952690124512,-3.8382654190063477
1728905894511293400,2.48429345703125,-1.5629043579101562,-1.2878000736236572,-0.2653226852416992
1728905894521292000,2.4942919921875,-2.8410308361053467,-1.101907730102539,-2.943082332611084
1728905894531291000,2.504290771484375,-2.748061180114746,0.06020402908325195,-0.8979511260986328
1728905894541289700,2.514289794921875,-0.5080671310424805,-0.5195415019989014,1.0918035507202148
1728905894551288300,2.524288330078125,0.8222873210906982,0.17779803276062012,0.027242660522460938
1728905894561287200,2.534287109375,1.3026630878448486,0.2826967239379883,-0.09199047088623047
1728905894571286000,2.5442861328125,1.2114920616149902,0.2551095485687256,-0.10252189636230469
1728905894581284600,2.55428466796875,-0.7894318103790283,0.434523344039917,-0.7371749877929688
1728905894591283500,2.564283447265625,-0.2516580820083618,0.2896387577056885,-1.1427001953125
1728905894601282600,2.574282470703125,-0.14579784870147705,0.2924954891204834,-1.5520062446594238
1728905894611281200,2.58428125,-0.20469367504119873,0.2806246280670166,-1.5598092079162598
1728905894621279700,2.59427978515625,2.687868118286133,0.9207007884979248,-0.802617073059082
1728905894631278600,2.604278564453125,1.6722546815872192,1.4995832443237305,-0.23154926300048828
1728905894641277400,2.61427734375,0.703003466129303,1.1259686946868896,0.20177650451660156
1728905894651276000,2.624276123046875,0.5147081017494202,1.2598354816436768,-0.10745048522949219
1728905894661275000,2.63427490234375,0.2657991647720337,1.1386480331420898,-0.1639108657836914
1728905894671273500,2.6442734375,0.2494114637374878,1.1389477252960205,-0.16658973693847656
1728905894681272300,2.654272216796875,-0.7047005891799927,0.806445837020874,0.4819498062133789
1728905894691271000,2.66427099609375,-0.9568257331848145,0.3397188186645508,0.9824905395507812
1728905894701269800,2.674269775390625,-0.3971599340438843,1.455420970916748,0.1183462142944336
1728905894711268400,2.684268310546875,2.8447060585021973,2.480741262435913,0.34113216400146484
1728905894721267200,2.69426708984375,-1.4409207105636597,0.45662379264831543,0.5269231796264648
1728905894731265800,2.704265869140625,-1.3932063579559326,0.4308490753173828,0.12491130828857422
1728905894741264600,2.7142646484375,0.2687804698944092,0.5757644176483154,-0.37361907958984375
1728905894751263500,2.724263427734375,-0.4460163116455078,0.2472999095916748,-0.5445346832275391
1728905894761262000,2.734261962890625,-0.26642322540283203,0.03534531593322754,-0.2424001693725586
1728905894771261000,2.744260986328125,0.2966930866241455,-0.2617173194885254,-0.30795955657958984
1728905894781259500,2.754259521484375,0.4712069034576416,-0.22319579124450684,-0.32584190368652344
1728905894791258400,2.76425830078125,0.36230361461639404,-0.3316175937652588,-0.7814264297485352
1728905894801257200,2.77425732421875,0.48062944412231445,-0.48180699348449707,-0.4487771987915039
1728905894811255800,2.784255859375,0.48278093338012695,-0.5180871486663818,-0.5589723587036133
1728905894821254700,2.794254638671875,0.2876617908477783,-0.36563873291015625,-0.7203855514526367
1728905894831253500,2.80425341796875,-0.028811097145080566,-0.10880208015441895,-0.5697765350341797
1728905894841252000,2.814252197265625,-0.21923208236694336,0.529076099395752,-0.5123748779296875
1728905894851251000,2.8242509765625,1.4439994096755981,0.26471543312072754,-2.209338665008545
1728905894861249800,2.834249755859375,0.40630006790161133,-1.5248100757598877,-2.2849984169006348
1728905894871248400,2.844248291015625,-1.3018132448196411,-1.0793392658233643,2.3544483184814453
1728905894881247200,2.854247314453125,-0.8923506736755371,0.11355328559875488,1.034708023071289
1728905894891245800,2.864245849609375,-0.08975207805633545,0.31358766555786133,-0.22808265686035156
1728905894901245200,2.8742451171875,0.22063100337982178,2.3159725666046143,-0.08358573913574219
1728905894911243800,2.884243896484375,-0.03673577308654785,3.694769859313965,0.3295736312866211
1728905894921242600,2.89424267578125,-1.0126107931137085,4.071262836456299,0.5032520294189453
1728905894931241500,2.904241455078125,-1.9317601919174194,3.086095094680786,0.1232614517211914
1728905894941240000,2.914239990234375,-2.093045711517334,1.3937277793884277,1.5659656524658203
1728905894951239000,2.924239013671875,-1.9341973066329956,1.255075454711914,0.6110134124755859
1728905894961237800,2.93423779296875,-0.6658557653427124,1.9854176044464111,-0.8380804061889648
1728905894971236600,2.944236572265625,-0.4824730157852173,2.123459577560425,-1.1155128479003906
1728905894981235500,2.9542353515625,-0.32804691791534424,0.3097689151763916,-0.8981180191040039
1728905894991234600,2.964234619140625,-0.09394645690917969,0.11537742614746094,0.2479267120361328
1728905895001233400,2.9742333984375,-0.4480113983154297,0.09983944892883301,0.3002033233642578
1728905895011232500,2.984232421875,-1.4317147731781006,-0.5100359916687012,-0.5351123809814453
1728905895021231400,2.9942314453125,-2.7615232467651367,-1.5018482208251953,-0.4124870300292969
1728905895031230500,3.00423046875,-2.763608694076538,-1.4248898029327393,-0.4301948547363281
1728905895041229600,3.0142294921875,-2.363670587539673,-2.1235909461975098,0.6446619033813477
1728905895051228700,3.024228759765625,-2.348787307739258,-2.092592239379883,0.6408939361572266
1728905895061227800,3.034227783203125,1.7357898950576782,0.9375655651092529,-0.20409202575683594
1728905895071227000,3.044226806640625,2.866722345352173,0.4746958017349243,-0.5105552673339844
1728905895081225700,3.054225830078125,3.5972065925598145,0.11734211444854736,-1.0759201049804688
1728905895091224800,3.064224853515625,2.471585988998413,0.18196654319763184,-1.6619596481323242
1728905895101224000,3.074223876953125,1.0944631099700928,0.1513575315475464,-1.0136537551879883
1728905895111223000,3.08422314453125,-0.2394399642944336,-0.42746496200561523,0.7227230072021484
1728905895121222000,3.094221923828125,-0.9912307262420654,-0.8284335732460022,1.820857048034668
1728905895131221000,3.104220947265625,-1.073613166809082,-0.8824863433837891,1.0288095474243164
1728905895141220000,3.11422021484375,-1.6681537628173828,-0.9725441336631775,0.7724266052246094
1728905895151219200,3.12421923828125,-1.1288158893585205,-1.0240458250045776,0.06635856628417969
1728905895161218300,3.13421826171875,-1.1200716495513916,-1.0575430393218994,0.07465553283691406
1728905895171217400,3.144217529296875,-4.290319442749023,-0.21955525875091553,-0.11600017547607422
1728905895181216300,3.15421630859375,-6.422516345977783,-0.3266165256500244,-0.6130905151367188
1728905895191215400,3.16421533203125,-5.639430046081543,-0.28184831142425537,-1.1771583557128906
1728905895201214500,3.17421435546875,-5.289423942565918,-0.33308374881744385,-1.0600309371948242
1728905895211213600,3.184213623046875,-4.905937671661377,-1.484544277191162,-0.9443531036376953
1728905895221212700,3.194212646484375,-10.475988388061523,-0.9580258131027222,0.6504964828491211
1728905895231211500,3.20421142578125,-7.060635566711426,-2.7269959449768066,-2.6232972145080566
1728905895241210600,3.214210693359375,3.0498831272125244,-6.6238603591918945,-5.637151718139648
1728905895251209700,3.224209716796875,7.421810150146484,-4.435237884521484,12.186321258544922
1728905895261208600,3.23420849609375,19.05266761779785,-3.343879222869873,11.374234199523926
1728905895271207700,3.244207763671875,7.233973503112793,0.9014564752578735,-3.629209041595459
1728905895281206500,3.25420654296875,0.9068025946617126,6.935051441192627,-8.356831550598145
1728905895291205400,3.264205322265625,3.3302221298217773,3.922520399093628,-8.738128662109375
1728905895301204200,3.274204345703125,2.2175655364990234,1.9056406021118164,-6.499967575073242
1728905895311202800,3.284202880859375,0.030314743518829346,-1.2523597478866577,-3.4918618202209473
1728905895321201700,3.29420166015625,-0.37884223461151123,-0.1945796012878418,-3.6817731857299805
1728905895331200500,3.304200439453125,0.5095499753952026,2.0308103561401367,-3.403543472290039
1728905895341199000,3.31419921875,0.8959953784942627,2.1874332427978516,-3.990572929382324
1728905895351198000,3.324197998046875,3.935375452041626,1.8994531631469727,-2.041110038757324
1728905895361195800,3.33419580078125,4.333953857421875,0.7291327714920044,-0.4645242691040039
1728905895371194600,3.344194580078125,3.8770275115966797,0.15915000438690186,1.2378902435302734
1728905895381193200,3.354193115234375,4.341935634613037,-0.0389409065246582,2.4364681243896484
1728905895391191600,3.364191650390625,5.1338934898376465,0.7455728054046631,4.661683082580566
1728905895401189600,3.374189697265625,4.900190353393555,0.8459669351577759,3.769711494445801
1728905895411188500,3.3841884765625,1.9871306419372559,0.44793689250946045,2.99361515045166
1728905895421187000,3.39418701171875,1.0697728395462036,0.15526807308197021,1.238987922668457
1728905895431186000,3.40418603515625,0.6109903454780579,0.7800620794296265,2.534700393676758
1728905895441184500,3.4141845703125,-1.0901833772659302,0.7313679456710815,1.9070310592651367
1728905895451183400,3.424183349609375,-3.1741456985473633,1.3673346042633057,0.096588134765625
1728905895461182000,3.434181884765625,-2.3961095809936523,2.569380283355713,-2.2803783416748047
1728905895471180800,3.444180908203125,-5.347744464874268,3.225306272506714,-2.63560152053833
1728905895481179600,3.4541796875,-4.550760269165039,2.3513035774230957,-4.2553205490112305
1728905895491178200,3.46417822265625,-0.9450497627258301,2.119950294494629,-1.3801441192626953
1728905895501177000,3.474177001953125,1.2147133350372314,0.8236896991729736,-0.3183469772338867
1728905895511175700,3.48417578125,1.9475420713424683,0.2579234838485718,-1.3980464935302734
1728905895521174500,3.494174560546875,4.504025936126709,0.6659282445907593,-1.1953916549682617
1728905895531173400,3.50417333984375,2.909545660018921,-0.5945500135421753,-1.800154685974121
1728905895541172000,3.514171875,1.4990147352218628,-0.7237688302993774,-1.871593952178955
1728905895551170800,3.5241708984375,3.3554186820983887,0.28207147121429443,-1.0936412811279297
1728905895561169700,3.534169677734375,4.336241722106934,0.5971585512161255,-1.4932451248168945
1728905895571168300,3.544168212890625,3.44477915763855,0.7190604209899902,-2.342186450958252
1728905895581167000,3.5541669921875,2.0657732486724854,1.3848599195480347,-2.1779298782348633
1728905895591165700,3.564165771484375,1.2431700229644775,1.4227348566055298,-1.6917963027954102
1728905895601164500,3.57416455078125,1.0506441593170166,0.9284654855728149,-0.3359527587890625
1728905895611163400,3.584163330078125,0.8518975973129272,1.4630625247955322,1.7519960403442383
1728905895621162000,3.594161865234375,-1.0046700239181519,1.1401408910751343,1.964059829711914
1728905895631160800,3.604160888671875,-2.3928093910217285,0.49368250370025635,0.010104179382324219
1728905895641159700,3.61415966796875,-3.9777348041534424,2.320762872695923,-2.447932243347168
1728905895651158300,3.624158203125,-5.971713066101074,2.9175920486450195,-2.6611557006835938
1728905895661158000,3.634157958984375,-5.208642959594727,1.8394901752471924,-1.5781559944152832
1728905895671156000,3.644156005859375,-3.5175492763519287,-1.1271029710769653,0.32173824310302734
1728905895681154600,3.654154541015625,-0.9462176561355591,-1.4705153703689575,3.0972461700439453
1728905895691154000,3.66415380859375,1.0626777410507202,-0.17051911354064941,5.802477836608887
1728905895701153300,3.6741533203125,0.9744133353233337,-0.9970654845237732,5.627900123596191
1728905895711152000,3.684152099609375,0.9471578598022461,-1.863165020942688,3.8490943908691406
1728905895721150700,3.694150634765625,1.1844242811203003,-2.2846498489379883,1.0522422790527344
1728905895731149600,3.704149658203125,0.5609875917434692,-2.5300512313842773,0.10659408569335938
1728905895741148200,3.714148193359375,-0.1732649803161621,-3.1146953105926514,-0.45009708404541016
1728905895751147000,3.72414697265625,-0.744828462600708,-3.2358758449554443,-0.4287757873535156
1728905895761145600,3.7341455078125,-0.7560083270072937,-3.292227029800415,-0.41958141326904297
1728905895771144400,3.74414453125,0.2633531987667084,-3.748847246170044,0.5654573440551758
1728905895781143000,3.75414306640625,0.9677931070327759,-4.041734218597412,0.8535432815551758
1728905895791142000,3.764141845703125,0.9134671688079834,-4.132117748260498,0.8685398101806641
1728905895801140500,3.774140380859375,0.5835825800895691,-3.534621477127075,-0.028249740600585938
1728905895811139300,3.784139404296875,0.13958390057086945,-2.885617971420288,-0.34936046600341797
1728905895821138000,3.794137939453125,-0.5547010898590088,-2.3149631023406982,-1.0552701950073242
1728905895831136800,3.80413671875,-0.6024555563926697,-2.427938938140869,-1.028822898864746
1728905895841135400,3.81413525390625,-0.6240864396095276,-0.8919392824172974,-0.9466733932495117
1728905895851134200,3.82413427734375,-0.6177319288253784,-0.9911481142044067,-0.919703483581543
1728905895861133000,3.834133056640625,-1.9669744968414307,-0.7184457778930664,0.15569591522216797
1728905895871131600,3.844131591796875,-1.7872973680496216,-1.2975282669067383,0.5345859527587891
1728905895881130500,3.854130615234375,-1.1977885961532593,-2.178809404373169,1.3135871887207031
1728905895891129000,3.864129150390625,1.3788731098175049,-2.078850030899048,-0.4891033172607422
1728905895901128000,3.8741279296875,2.6424570083618164,-1.0031685829162598,-1.0911340713500977
1728905895911126800,3.884126708984375,2.415843963623047,0.19029521942138672,-0.05568695068359375
1728905895921125600,3.894125732421875,-1.1055595874786377,0.3901503086090088,-0.526728630065918
1728905895931124000,3.9041240234375,-5.270919322967529,0.5843870639801025,0.38367366790771484
1728905895941122800,3.914122802734375,-6.818037033081055,0.32222652435302734,0.736821174621582
1728905895951121400,3.924121337890625,-6.847268104553223,0.19610166549682617,0.7862052917480469
1728905895961120300,3.934120361328125,0.07513590902090073,5.0808305740356445,3.4956512451171875
1728905895971119600,3.94411962890625,2.434288263320923,-0.10576057434082031,2.5369911193847656
1728905895981118500,3.954118408203125,-0.20349997282028198,-2.5626487731933594,3.2192840576171875
1728905895991117000,3.964116943359375,0.5583306550979614,-4.208804607391357,4.383368492126465
1728905896001116000,3.974115966796875,2.1066055297851562,-3.2816150188446045,3.1555843353271484
1728905896011114800,3.98411474609375,1.3437612056732178,-3.466984748840332,3.0477123260498047
1728905896021113300,3.99411328125,1.1662019491195679,-0.9329168796539307,1.761688232421875
1728905896031112200,4.0041123046875,1.0675878524780273,-0.27829694747924805,0.9848499298095703
1728905896041111000,4.014111083984375,1.244729995727539,-0.3874692916870117,0.8937473297119141
1728905896051109600,4.024109619140625,1.7017624378204346,-0.7968771457672119,1.7639904022216797
1728905896061108500,4.0341083984375,1.5390504598617554,-0.8380146026611328,1.584376335144043
1728905896071107300,4.044107421875,1.6099765300750732,-0.5976428985595703,0.7899036407470703
1728905896081106200,4.054106201171875,1.4476042985916138,-0.646787166595459,1.1818532943725586
1728905896091105000,4.06410498046875,2.252676248550415,-0.905458927154541,1.3056135177612305
1728905896101104000,4.074104248046875,0.8223639726638794,-0.753568172454834,0.5728464126586914
1728905896111103000,4.08410302734375,0.9789224863052368,-1.0602374076843262,-0.5243854522705078
1728905896121101800,4.094101806640625,0.9758270978927612,-1.4682254791259766,-1.2150945663452148
1728905896131100700,4.1041005859375,0.8018494844436646,-1.376786708831787,-1.161149024963379
1728905896141099500,4.114099609375,0.9457370042800903,-1.000086784362793,-1.386042594909668
1728905896151098400,4.124098388671875,0.9937413334846497,-1.0946130752563477,-1.314666748046875
1728905896161097200,4.13409716796875,0.4449686110019684,-0.19060802459716797,-1.4507050514221191
1728905896171096000,4.144095947265625,1.3616141080856323,0.1046452522277832,-1.1636972427368164
1728905896181095000,4.154094970703125,2.6024792194366455,0.1750946044921875,-0.903233528137207
1728905896191093800,4.16409375,2.5158262252807617,-0.022247791290283203,-0.8238964080810547
1728905896201092600,4.174092529296875,2.1603219509124756,0.41237545013427734,-0.8226795196533203
1728905896211091500,4.184091552734375,1.5321049690246582,0.8878188133239746,0.4147505760192871
1728905896221090300,4.19409033203125,1.432659387588501,1.3744654655456543,0.6353788375854492
1728905896231089400,4.20408935546875,1.4865741729736328,1.1456565856933594,0.46858787536621094
1728905896241088300,4.214088134765625,1.5249598026275635,1.2828679084777832,0.1746997833251953
1728905896251087000,4.224087158203125,1.5989181995391846,1.7395000457763672,-0.13671541213989258
1728905896261086000,4.2340859375,0.921768069267273,1.7589855194091797,-0.8165864944458008
1728905896271084800,4.244084716796875,0.5871748328208923,1.6322779655456543,-1.6438498497009277
1728905896281083600,4.254083740234375,0.05747199058532715,1.1215605735778809,-2.597294807434082
1728905896291082500,4.26408251953125,-0.4815373420715332,0.2615671157836914,-2.728212356567383
1728905896301081300,4.274081298828125,-0.3897988796234131,-0.5056524276733398,-2.5227155685424805
1728905896311080400,4.28408056640625,-0.6970663070678711,-1.0284490585327148,-1.5627813339233398
1728905896321079300,4.294079345703125,-0.26899170875549316,-0.7273955345153809,-1.336315631866455
1728905896331078100,4.304078125,1.3175442218780518,-0.5091533660888672,-1.2118315696716309
1728905896341076700,4.31407666015625,2.0469603538513184,-0.7157073020935059,-1.2609524726867676
1728905896351075600,4.32407568359375,2.5990238189697266,-0.30686235427856445,-1.4202284812927246
1728905896361074200,4.33407421875,3.2380359172821045,-0.1674809455871582,-2.245236396789551
1728905896371072000,4.344072021484375,0.6550023555755615,-0.7754015922546387,-2.9850168228149414
1728905896381070000,4.354070068359375,-1.1863744258880615,-2.38602614402771,-2.0411157608032227
1728905896391069000,4.36406884765625,-1.2559173107147217,-2.2817165851593018,-2.11281681060791
1728905896401067500,4.374067626953125,-0.580274760723114,-2.707512617111206,-0.8451309204101562
1728905896411066400,4.38406640625,-1.168725848197937,-3.2069787979125977,-1.252345085144043
1728905896421065000,4.39406494140625,-1.460332989692688,-3.1983704566955566,-1.4799532890319824
1728905896431063800,4.404063720703125,-0.5150593519210815,-3.4449148178100586,-1.082827091217041
1728905896441062000,4.414061767578125,4.550017356872559,-2.8044519424438477,1.6036787033081055
1728905896451060500,4.424060546875,4.988723278045654,-2.231205701828003,2.1338911056518555
1728905896461059300,4.434059326171875,-0.26306846737861633,-3.6767969131469727,-1.4291396141052246
1728905896471058000,4.444057861328125,-0.3732733428478241,-3.699439525604248,-1.4148459434509277
1728905896481057000,4.45405712890625,2.1682353019714355,-4.13042688369751,-3.9378275871276855
1728905896491055900,4.464055908203125,2.892329692840576,-3.6137540340423584,-2.4863948822021484
1728905896501054500,4.474054443359375,2.7155799865722656,-3.4550275802612305,-1.8926949501037598
1728905896511053300,4.48405322265625,1.0338243246078491,-2.9628612995147705,-2.194040298461914
1728905896521052000,4.494052001953125,0.059082627296447754,-2.2772929668426514,-3.2673239707946777
1728905896531050800,4.50405078125,-0.6105375289916992,-2.0820159912109375,-3.769890785217285
1728905896541049600,4.514049560546875,-1.0390008687973022,-2.273906707763672,-3.4137487411499023
1728905896551047700,4.524047607421875,-1.8228142261505127,-1.8158295154571533,-4.210694313049316
1728905896561046300,4.53404638671875,0.4709458351135254,-0.9548211097717285,-4.938421726226807
1728905896571045000,4.544045166015625,0.2603025436401367,-1.1382465362548828,-4.766356945037842
1728905896581044000,4.5540439453125,7.48925256729126,6.523066520690918,-3.0205516815185547
1728905896591042600,4.56404248046875,7.3280415534973145,6.4807610511779785,-2.9507741928100586
1728905896601041400,4.57404150390625,-0.16171646118164062,3.8532485961914062,-4.143013000488281
1728905896611040300,4.584040283203125,-3.785569906234741,3.8912124633789062,-5.9164628982543945
1728905896621038800,4.594038818359375,-2.5080580711364746,4.241822242736816,-8.572599411010742
1728905896631037700,4.60403759765625,-2.7372119426727295,4.579221725463867,-8.747011184692383
1728905896641036300,4.614036376953125,4.871316432952881,-5.40852165222168,2.0870938301086426
1728905896651035100,4.62403515625,4.6762542724609375,-4.663516044616699,1.7411012649536133
1728905896661034200,4.6340341796875,13.6212739944458,-7.383665084838867,19.376981735229492
1728905896671033900,4.644033935546875,9.129151344299316,-10.29102897644043,37.42768859863281
1728905896681033200,4.654033203125,5.347784042358398,-5.790254592895508,32.225547790527344
1728905896691032000,4.664031982421875,-2.1220147609710693,-2.295325756072998,3.060946464538574
1728905896701030700,4.67403076171875,-6.252241134643555,-1.3269709348678589,-0.09905529022216797
1728905896711029500,4.684029541015625,0.7108821868896484,-2.1189351081848145,2.7205419540405273
1728905896721028400,4.6940283203125,12.252495765686035,-3.966193675994873,3.924875259399414
1728905896731027000,4.70402685546875,13.59327220916748,-1.9557700157165527,2.027555465698242
1728905896741026300,4.7140263671875,10.458942413330078,0.36218154430389404,-0.9555130004882812
1728905896751025200,4.724025146484375,10.01656723022461,2.523585796356201,-0.3544120788574219
1728905896761023700,4.734023681640625,8.925281524658203,1.0243443250656128,1.8786954879760742
1728905896771022600,4.744022705078125,6.747517108917236,-1.242855429649353,1.3639650344848633
1728905896781021000,4.75402099609375,6.764571666717529,-1.1958574056625366,1.3471908569335938
1728905896791019800,4.764019775390625,4.071472644805908,-0.5171259641647339,0.2241687774658203
1728905896801018600,4.7740185546875,5.947693824768066,-0.6622258424758911,-0.6016626358032227
1728905896811017200,4.784017333984375,6.336772441864014,-0.5050824880599976,-1.723933219909668
1728905896821016000,4.79401611328125,5.172355651855469,-0.422404408454895,-2.8741846084594727
1728905896831014700,4.8040146484375,5.0319647789001465,-0.6065865755081177,-3.9896154403686523
1728905896841013200,4.81401318359375,5.279046058654785,-0.8789698481559753,-4.711541652679443
1728905896851012900,4.824012939453125,5.15174674987793,-0.8336994647979736,-5.36265754699707
1728905896861011500,4.834011474609375,4.926029205322266,-0.4550079107284546,-5.106482982635498
1728905896871010300,4.84401025390625,4.8896002769470215,-0.4349263906478882,-5.0947957038879395
1728905896881009000,4.8540087890625,4.46103572845459,0.40072786808013916,-5.5754289627075195
1728905896891007700,4.8640078125,4.389272212982178,0.4025989770889282,-5.544925689697266
1728905896901006600,4.874006591796875,2.826380729675293,0.5661712884902954,-6.075047492980957
1728905896911005200,4.884005126953125,2.7500123977661133,0.5468354225158691,-6.037382125854492
1728905896921004000,4.894004150390625,1.0747718811035156,0.019013643264770508,-6.061150550842285
1728905896931003000,4.9040029296875,0.2117161750793457,-0.29916656017303467,-6.276073932647705
1728905896941001500,4.91400146484375,-0.8834958076477051,-0.6033530235290527,-6.541526794433594
1728905896951000300,4.924000244140625,-1.5203592777252197,-0.8895696997642517,-6.549942970275879
1728905896960999200,4.933999267578125,-2.7253711223602295,-1.423148512840271,-7.087543964385986
1728905896970997800,4.943997802734375,-3.791687250137329,-1.8831273317337036,-7.748666763305664
1728905896980996600,4.95399658203125,-4.312595844268799,-2.391502857208252,-7.756728649139404
1728905896990994700,4.96399462890625,-4.311579704284668,-2.4059500694274902,-7.754265308380127
1728905897000993500,4.97399365234375,-5.128744602203369,-1.9180941581726074,-7.515924453735352
1728905897010992000,4.9839921875,-5.173700332641602,-1.99868643283844,-7.802931785583496
1728905897020991000,4.993990966796875,-4.838127136230469,-1.9313400983810425,-8.001595497131348
1728905897030989800,5.00398974609375,-3.7834439277648926,-1.9020484685897827,-8.308481216430664
1728905897040988400,5.013988525390625,-3.2220373153686523,-1.576446533203125,-8.300809860229492
1728905897050987300,5.0239873046875,-2.0541069507598877,0.013338446617126465,-7.63209342956543
1728905897060986000,5.033986083984375,-1.2393033504486084,1.7688552141189575,-6.881665229797363
1728905897070984700,5.043984619140625,1.7413086891174316,4.090137958526611,-4.590044975280762
1728905897080983600,5.053983642578125,6.525721549987793,6.690966606140137,0.7279567718505859
1728905897090982400,5.063982421875,13.93677043914795,13.270342826843262,6.520957946777344
1728905897100981200,5.073981201171875,21.20172119140625,19.353647232055664,13.221877098083496
1728905897110980000,5.08397998046875,21.01637077331543,19.43718147277832,13.316797256469727
1728905897120979000,5.09397900390625,14.077682495117188,5.803097248077393,10.89509391784668
1728905897130977800,5.103977783203125,7.349787712097168,4.737607002258301,11.474496841430664
1728905897140977000,5.113976806640625,-1.7364537715911865,4.267788410186768,11.524650573730469
1728905897150976000,5.12397607421875,-5.080051898956299,6.85183048248291,8.251729965209961
1728905897160974800,5.133974853515625,-5.557230472564697,6.681097984313965,5.392195701599121
1728905897170974000,5.143973876953125,-5.433928966522217,6.695886135101318,5.331403732299805
1728905897180973000,5.15397314453125,-2.421280860900879,6.156948566436768,-0.6838970184326172
1728905897190972200,5.16397216796875,-1.0767710208892822,3.0933802127838135,-4.3183913230896
1728905897200971000,5.173970947265625,-2.1012983322143555,2.089775562286377,-5.571789741516113
1728905897210970000,5.18397021484375,-2.601038932800293,1.8304924964904785,-5.736691951751709
1728905897220969200,5.19396923828125,-1.8018296957015991,1.1024028062820435,-5.934909820556641
1728905897230968300,5.20396826171875,-1.6780074834823608,1.1191351413726807,-5.98023796081543
1728905897240967400,5.213967529296875,-0.5492525100708008,-0.2330561876296997,-5.76614236831665
1728905897250966500,5.223966552734375,-0.2692863941192627,-0.6157599687576294,-5.679471015930176
1728905897260965600,5.233965576171875,-0.23291611671447754,-0.9022931456565857,-5.58064079284668
1728905897270964700,5.24396484375,0.835242748260498,-1.3561817407608032,-5.509330749511719
1728905897280963800,5.2539638671875,2.150238037109375,-1.3785871267318726,-4.791635990142822
1728905897290963500,5.26396337890625,2.1535089015960693,-1.3231277465820312,-4.800836086273193
1728905897300962600,5.273962646484375,2.9153025150299072,-0.6058863997459412,-1.36527681350708
1728905897310961700,5.283961669921875,3.525580644607544,-0.42081528902053833,0.4978952407836914
1728905897320960800,5.293960693359375,2.6988778114318848,-0.4014091491699219,-0.8554162979125977
1728905897330960000,5.3039599609375,2.349806785583496,0.01684093475341797,-0.4856843948364258
1728905897340959000,5.313958984375,2.8627207279205322,0.3697105646133423,1.4853715896606445
1728905897350957300,5.323957275390625,4.131918907165527,0.04962122440338135,2.696096420288086
1728905897360956400,5.333956298828125,4.720100402832031,-1.0727639198303223,2.527010917663574
1728905897370954800,5.343954833984375,4.445992469787598,-3.4995148181915283,4.13094425201416
1728905897380954400,5.353954345703125,1.0634088516235352,-7.049074172973633,2.4322900772094727
1728905897390953500,5.363953369140625,0.6208364963531494,-14.569137573242188,-1.7730937004089355
1728905897400952600,5.37395263671875,-5.884120941162109,-20.320972442626953,1.8558893203735352
1728905897410951400,5.383951416015625,-11.440973281860352,-19.43614959716797,12.13875675201416
1728905897420950300,5.3939501953125,-18.60891342163086,-11.672019958496094,19.659881591796875
1728905897430949400,5.403949462890625,-22.015247344970703,-3.184504985809326,12.265276908874512
1728905897440947500,5.413947509765625,-8.847511291503906,-2.2733020782470703,3.5473031997680664
1728905897450946300,5.4239462890625,-8.845375061035156,-2.3010306358337402,3.5494394302368164
1728905897460945200,5.433945068359375,3.6425113677978516,-6.3458476066589355,3.5007619857788086
1728905897470944000,5.443944091796875,3.5783987045288086,-6.355821132659912,3.517916679382324
1728905897480942600,5.453942626953125,9.499277114868164,-6.960530757904053,4.749942779541016
1728905897490941400,5.46394140625,8.139244079589844,-5.178296089172363,4.481420516967773
1728905897500940000,5.47393994140625,5.137632369995117,-4.145177364349365,3.333676338195801
1728905897510939000,5.48393896484375,2.046267032623291,-3.5454890727996826,3.6780929565429688
1728905897520937500,5.4939375,0.6219687461853027,-3.019496440887451,3.6640567779541016
1728905897530936300,5.503936279296875,1.748671531677246,-2.952509880065918,2.9472360610961914
1728905897540935200,5.51393505859375,2.0315029621124268,-2.965363025665283,2.699519157409668
1728905897550933800,5.523933837890625,2.1377134323120117,-3.0004031658172607,2.684309959411621
1728905897560932600,5.5339326171875,0.9201583862304688,-2.3076066970825195,2.0193777084350586
1728905897570931500,5.543931396484375,0.06520164012908936,-1.6847914457321167,2.231660842895508
1728905897580930000,5.553929931640625,0.37970423698425293,-1.5566949844360352,2.083115577697754
1728905897590929000,5.563928955078125,1.6495378017425537,-2.507432222366333,1.7671575546264648
1728905897600927700,5.573927734375,3.187941551208496,-3.7862472534179688,0.987980842590332
1728905897610926300,5.58392626953125,3.2859387397766113,-3.806471347808838,0.9775791168212891
1728905897620925200,5.59392529296875,1.8358715772628784,-2.043091297149658,-0.916839599609375
1728905897630923800,5.603923828125,1.6290146112442017,-1.2993788719177246,-1.7135262489318848
1728905897640922600,5.613922607421875,2.26831316947937,-0.6235061883926392,-1.6419610977172852
1728905897650922000,5.623921875,2.367373466491699,-0.6395602226257324,-1.6483783721923828
1728905897660920800,5.6339208984375,5.788235187530518,0.8284116983413696,-3.115891456604004
1728905897670920400,5.64392041015625,5.851038455963135,0.8116188049316406,-3.117809295654297
1728905897680918500,5.65391845703125,5.151419162750244,2.78273868560791,-5.021891117095947
1728905897690917400,5.66391748046875,3.989694356918335,3.9393815994262695,-5.352188587188721
1728905897700916000,5.673916015625,3.712717294692993,3.835063934326172,-5.971631050109863
1728905897710914800,5.683914794921875,3.4316842555999756,3.7923173904418945,-6.646661758422852
1728905897720913700,5.69391357421875,3.5079426765441895,3.0027964115142822,-7.514470100402832
1728905897730912000,5.703912109375,3.6296417713165283,2.9230504035949707,-7.503142356872559
1728905897740911600,5.71391162109375,4.159764289855957,3.2909393310546875,-7.499184608459473
1728905897750910500,5.723910400390625,4.2817840576171875,3.176621675491333,-7.476341247558594
1728905897760909000,5.733908935546875,1.9124176502227783,1.5997209548950195,-8.483912467956543
1728905897770908000,5.743907958984375,2.056771755218506,1.4345667362213135,-8.441997528076172
1728905897780906800,5.75390673828125,2.58671236038208,-0.020137310028076172,-9.402602195739746
1728905897790905300,5.7639052734375,4.80148458480835,0.6885569095611572,-9.880120277404785
1728905897800904200,5.773904296875,5.664916515350342,-0.47943902015686035,-11.04859733581543
1728905897810903000,5.783903076171875,6.250459671020508,0.4063858985900879,-11.547124862670898
1728905897820901600,5.793901611328125,6.133839130401611,0.26140451431274414,-11.506291389465332
1728905897830900500,5.803900390625,6.214780330657959,0.12302899360656738,-12.29759407043457
1728905897840899000,5.813899169921875,4.498525142669678,-0.2310800552368164,-10.23036003112793
1728905897850898000,5.82389794921875,3.6844565868377686,-0.03816986083984375,-9.054952621459961
1728905897860896500,5.833896484375,4.048845291137695,1.3985257148742676,-8.96897029876709
1728905897870895000,5.84389501953125,3.8900139331817627,1.5765202045440674,-9.023106575012207
1728905897880894000,5.85389404296875,4.083228588104248,2.194753646850586,-7.736478805541992
1728905897890892800,5.863892822265625,3.916792869567871,2.589751720428467,-7.831928253173828
1728905897900891400,5.873891357421875,4.330554485321045,1.352588415145874,30.109710693359375
1728905897910890200,5.88389013671875,-4.382367134094238,-0.3419727087020874,18.393169403076172
1728905897920888800,5.893888916015625,-5.809307098388672,-2.4030370712280273,10.819419860839844
1728905897930887700,5.9038876953125,-8.118570327758789,-4.471005916595459,9.94632625579834
1728905897940886300,5.91388623046875,-7.769189357757568,-5.703413486480713,7.392877578735352
1728905897950885000,5.923885009765625,-7.43024206161499,-5.653993606567383,7.396310806274414
1728905897960884000,5.933884033203125,-9.748072624206543,-1.9933784008026123,0.4131031036376953
1728905897970882600,5.943882568359375,-9.729927062988281,-2.0186259746551514,0.4163227081298828
1728905897980881400,5.95388134765625,2.2665765285491943,-3.387363910675049,0.19299030303955078
1728905897990880000,5.9638798828125,2.2067747116088867,-3.409668445587158,0.19187450408935547
1728905898000878800,5.97387890625,1.1469056606292725,-3.1953365802764893,1.2090225219726562
1728905898010877700,5.983877685546875,1.1460124254226685,-3.165203809738159,2.7190799713134766
1728905898020876300,5.993876220703125,1.1253975629806519,-2.717233657836914,2.6215105056762695
1728905898030875100,6.003875244140625,0.861945390701294,-1.5979019403457642,1.3305845260620117
1728905898040874000,6.0138740234375,0.9635562896728516,-0.6306576132774353,-0.09118175506591797
1728905898050872600,6.02387255859375,0.9798527956008911,-0.6006392240524292,-0.09313774108886719
1728905898060871400,6.033871337890625,1.6151573657989502,0.5639882683753967,-1.1347522735595703
1728905898070870300,6.043870361328125,1.8787047863006592,0.8779103755950928,-1.3532371520996094
1728905898080868900,6.053868896484375,1.9535493850708008,0.9456865191459656,-1.421152114868164
1728905898090867700,6.06386767578125,1.6466572284698486,1.0434057712554932,-1.4171266555786133
1728905898100866300,6.0738662109375,0.9897282719612122,1.0802102088928223,-0.9532327651977539
1728905898110865200,6.083865234375,0.95050448179245,1.1205992698669434,-0.9561729431152344
1728905898120863700,6.09386376953125,-0.47643738985061646,1.2764103412628174,-0.26698970794677734
1728905898130862600,6.103862548828125,-1.1053104400634766,1.595028281211853,0.008314132690429688
1728905898140861400,6.113861328125,-1.3455168008804321,2.1717910766601562,0.2457141876220703
1728905898150860000,6.123860107421875,-1.3832459449768066,2.206543445587158,0.24426555633544922
1728905898160859000,6.13385888671875,-0.3454863429069519,2.4812941551208496,-0.9105119705200195
1728905898170857700,6.143857666015625,0.46389877796173096,1.5332804918289185,-1.506631851196289
1728905898180856300,6.153856201171875,0.29697567224502563,0.015929698944091797,-1.517801284790039
1728905898190855200,6.163855224609375,-0.19462884962558746,-0.957085371017456,-1.7364816665649414
1728905898200854000,6.17385400390625,-1.3071750402450562,-2.185450553894043,-1.1887474060058594
1728905898210852900,6.183852783203125,-1.6100661754608154,-3.7650582790374756,-0.3514595031738281
1728905898220852000,6.19385205078125,-3.2513773441314697,-4.108641147613525,0.7222909927368164
1728905898230850800,6.203850830078125,-4.401120662689209,-3.7276041507720947,1.8704051971435547
1728905898240850000,6.213849853515625,-4.694568157196045,-2.7990849018096924,2.348456382751465
1728905898250848800,6.223848876953125,-3.3900656700134277,-1.797561764717102,1.507065773010254
1728905898260847900,6.233847900390625,-1.1404128074645996,-1.9228452444076538,1.4591484069824219
1728905898270847000,6.243846923828125,0.3516331911087036,-2.24639892578125,1.8746204376220703
1728905898280846000,6.25384619140625,1.7586586475372314,-2.4519729614257812,3.1961851119995117
1728905898290845000,6.263844970703125,1.5828988552093506,-2.4530529975891113,3.213677406311035
1728905898300844500,6.273844482421875,2.853053569793701,-2.1446897983551025,3.290928840637207
1728905898310843400,6.283843505859375,2.7848286628723145,-2.1408541202545166,3.2994136810302734
1728905898320842500,6.293842529296875,1.3469325304031372,-1.883779764175415,1.8088569641113281
1728905898330841600,6.303841552734375,1.3394775390625,-1.8702027797698975,1.8095312118530273
1728905898340840700,6.3138408203125,-0.15397298336029053,-1.8396122455596924,1.2176589965820312
1728905898350839000,6.323839111328125,-0.15912914276123047,-1.81214439868927,1.2178335189819336
1728905898360837400,6.33383740234375,-0.028855562210083008,-1.8579466342926025,0.35964298248291016
1728905898370835500,6.34383544921875,-0.06030464172363281,-1.8217589855194092,0.3634958267211914
1728905898380834600,6.35383447265625,-0.3281581401824951,-1.273600459098816,1.3442878723144531
1728905898390833700,6.363833740234375,0.11678171157836914,-0.9605366587638855,1.552992820739746
1728905898400832800,6.373832763671875,1.1046828031539917,-0.7154989242553711,0.988978385925293
1728905898410832000,6.383831787109375,1.9850765466690063,-0.8687646985054016,0.45661163330078125
1728905898420830700,6.393830810546875,2.4473767280578613,-0.5514081120491028,0.4506826400756836
1728905898430830300,6.403830322265625,2.185044050216675,-0.3986304998397827,0.5525588989257812
1728905898440829400,6.413829345703125,1.4988105297088623,-0.44503334164619446,0.5039634704589844
1728905898450828500,6.42382861328125,1.4473199844360352,-0.3659861087799072,0.5161218643188477
1728905898460827600,6.43382763671875,0.9462076425552368,-0.32830607891082764,0.7679252624511719
1728905898470826500,6.443826416015625,1.37832772731781,-1.056537389755249,-0.11338996887207031
1728905898480825600,6.45382568359375,1.8702317476272583,-1.803632378578186,-0.9937334060668945
1728905898490824200,6.46382421875,1.7946383953094482,-1.7006893157958984,-0.9706592559814453
1728905898500822500,6.473822509765625,2.6003189086914062,-2.9510574340820312,-0.7691221237182617
1728905898510821400,6.4838212890625,2.7221028804779053,-3.563269853591919,-0.16044330596923828
1728905898520820200,6.4938203125,2.233297348022461,-3.5835509300231934,0.6179876327514648
1728905898530819000,6.503819091796875,0.9088287353515625,-3.192544937133789,1.4917049407958984
1728905898540818000,6.51381787109375,-0.36930060386657715,-2.5379838943481445,1.6546525955200195
1728905898550816800,6.523816650390625,-0.8968406915664673,-2.317922592163086,1.5847225189208984
1728905898560815400,6.5338154296875,-0.788804292678833,-1.9949522018432617,0.8055152893066406
1728905898570814200,6.543814208984375,-0.8951153755187988,-1.7981324195861816,0.8812551498413086
1728905898580812800,6.553812744140625,-0.02511143684387207,-1.1841139793395996,1.056035041809082
1728905898590811600,6.563811767578125,0.035225629806518555,-0.602013349533081,1.0684289932250977
1728905898600810000,6.57381005859375,-0.08978867530822754,0.2783637046813965,1.2680549621582031
1728905898610808600,6.58380859375,-0.5161240100860596,1.4014647006988525,1.1288490295410156
1728905898620807200,6.59380712890625,-1.1145291328430176,2.2691164016723633,0.8969449996948242
1728905898630806000,6.603805908203125,-1.2712585926055908,2.940751075744629,0.9089365005493164
1728905898640804900,6.613804931640625,-0.9436521530151367,3.758702516555786,0.8849658966064453
1728905898650804200,6.62380419921875,-0.9084517955780029,3.9500691890716553,0.9525852203369141
1728905898660803600,6.633803466796875,0.6910533905029297,4.595541000366211,0.4696025848388672
1728905898670803200,6.64380322265625,0.9711458683013916,5.197327136993408,0.2254791259765625
1728905898680802000,6.653802001953125,0.5307497978210449,5.786016941070557,-0.3178415298461914
1728905898690801000,6.66380078125,0.616358757019043,5.930525302886963,-0.2737884521484375
1728905898700799500,6.673799560546875,0.18888258934020996,6.866121292114258,-1.542569637298584
1728905898710798300,6.68379833984375,0.042170047760009766,6.697513580322266,-2.5873565673828125
1728905898720797200,6.693797119140625,-0.1619272232055664,5.939231872558594,-3.6002588272094727
1728905898730795300,6.703795166015625,-0.6557453870773315,5.327999591827393,-3.7769079208374023
1728905898740794000,6.713794189453125,-1.5670794248580933,5.395688056945801,-3.0227303504943848
1728905898750792700,6.723792724609375,-1.462063193321228,5.443798065185547,-3.0244593620300293
1728905898760791600,6.73379150390625,-3.0517492294311523,6.234763145446777,-2.122603416442871
1728905898770790400,6.743790283203125,-2.8407506942749023,6.42317008972168,-2.31085205078125
1728905898780789000,6.7537890625,-1.614189863204956,6.724864959716797,-1.86395263671875
1728905898790788400,6.763788330078125,-1.4866840839385986,6.710426330566406,-1.9013748168945312
1728905898800787700,6.77378759765625,1.5998570919036865,6.847043514251709,-2.713766574859619
1728905898810786600,6.78378662109375,1.3543579578399658,7.857397079467773,-2.022550106048584
1728905898820785200,6.79378515625,0.02338707447052002,8.445210456848145,-1.647456169128418
1728905898830784000,6.803783935546875,1.4893176555633545,7.350484848022461,-1.9787955284118652
1728905898840782600,6.813782470703125,3.562746524810791,5.627018451690674,-2.664839744567871
1728905898850781400,6.823781494140625,2.197331428527832,4.30287504196167,-3.1749134063720703
1728905898860780300,6.8337802734375,0.39218592643737793,3.9396402835845947,-1.8614616394042969
1728905898870779000,6.84377880859375,-0.20770931243896484,3.864980459213257,-0.06642913818359375
1728905898880777700,6.85377783203125,0.8797332048416138,4.136765480041504,1.5033292770385742
1728905898890776600,6.863776611328125,0.8395736217498779,3.8959319591522217,1.4101743698120117
1728905898900775200,6.873775146484375,3.1227707862854004,4.1816277503967285,2.441896438598633
1728905898910774000,6.88377392578125,6.475204944610596,4.638564586639404,2.9152050018310547
1728905898920772900,6.89377294921875,8.867969512939453,4.378081321716309,3.409923553466797
1728905898930771500,6.903771484375,8.859696388244629,4.014927387237549,3.3147945404052734
1728905898940770300,6.913770263671875,9.367841720581055,-1.7895926237106323,-0.3621349334716797
1728905898950769000,6.923768798828125,7.093957901000977,-2.069593906402588,-2.150203227996826
1728905898960767700,6.933767822265625,9.233123779296875,-6.532439231872559,0.05261516571044922
1728905898970766300,6.943766357421875,14.640539169311523,-14.051387786865234,0.7864971160888672
1728905898980765200,6.95376513671875,15.98603343963623,-21.94550895690918,-0.13225936889648438
1728905898990763800,6.963763671875,18.01889991760254,-21.661334991455078,4.579771995544434
1728905899000762600,6.9737626953125,14.471033096313477,-19.098119735717773,11.352664947509766
1728905899010761200,6.98376123046875,14.452192306518555,-19.02418327331543,11.363085746765137
1728905899020760000,6.993760009765625,-37.1068229675293,-6.838102340698242,17.245769500732422
1728905899030758700,7.003758544921875,-37.1134147644043,-6.721963405609131,17.26009750366211
1728905899040757500,7.013757568359375,-22.644203186035156,-6.452495574951172,3.067483901977539
1728905899050756400,7.02375634765625,-22.445188522338867,-6.379051208496094,3.0405378341674805
1728905899060755000,7.0337548828125,-2.0889227390289307,-6.182534694671631,-0.9840021133422852
1728905899070753800,7.04375390625,-1.8728187084197998,-6.146378517150879,-1.0077571868896484
1728905899080752400,7.05375244140625,1.9880553483963013,-3.576127052307129,-5.695336818695068
1728905899090751200,7.063751220703125,2.0969600677490234,-3.5992484092712402,-5.709774494171143
1728905899100749800,7.073749755859375,4.147922515869141,-2.410130739212036,-5.5445876121521
1728905899110748700,7.083748779296875,5.3866496086120605,-2.0559751987457275,-4.984123706817627
1728905899120747500,7.09374755859375,5.848663330078125,-2.4885125160217285,-5.545481204986572
1728905899130746000,7.10374609375,4.804251670837402,-2.311903953552246,-4.135936737060547
1728905899140745000,7.113744873046875,4.8188395500183105,-2.3056864738464355,-4.136161804199219
1728905899150743800,7.123743896484375,3.6347570419311523,-2.372896432876587,-3.8971481323242188
1728905899160742400,7.133742431640625,2.448856830596924,-0.8869345188140869,-2.1086812019348145
1728905899170741200,7.1437412109375,2.3621575832366943,-0.9255188703536987,-2.106606960296631
1728905899180740000,7.153739990234375,0.8656629323959351,-0.031250834465026855,1.3436365127563477
1728905899190738700,7.16373876953125,0.7435516119003296,-0.09156537055969238,1.3491849899291992
1728905899200737500,7.173737548828125,-1.619497299194336,0.5288645625114441,5.120052337646484
1728905899210736000,7.183736083984375,-2.8823704719543457,1.3171180486679077,5.797867774963379
1728905899220735000,7.19373486328125,-6.366443157196045,2.7124035358428955,6.924551010131836
1728905899230733800,7.20373388671875,-6.392407417297363,2.63484525680542,6.921361923217773
1728905899240732400,7.213732421875,-1.3501946926116943,3.0715744495391846,2.9188671112060547
1728905899250731300,7.223731201171875,2.367898941040039,2.1005892753601074,-0.05622673034667969
1728905899260730000,7.233730224609375,4.927822113037109,2.330551862716675,-1.3717117309570312
1728905899270728700,7.243728759765625,5.273537635803223,2.5288166999816895,-2.4726948738098145
1728905899280727600,7.2537275390625,4.932579517364502,2.7976999282836914,-3.5659074783325195
1728905899290726400,7.263726318359375,4.355449199676514,3.1097841262817383,-4.424902439117432
1728905899300725200,7.273725341796875,3.5803403854370117,3.3316118717193604,-4.246514797210693
1728905899310724000,7.28372412109375,2.774125814437866,3.426973581314087,-3.3028101921081543
1728905899320723000,7.293722900390625,1.4965070486068726,3.6945366859436035,-1.894235610961914
1728905899330721800,7.3037216796875,0.6322778463363647,3.9388468265533447,-1.3036584854125977
1728905899340720600,7.313720703125,0.25051963329315186,4.045777320861816,-1.203948974609375
1728905899350719000,7.323718994140625,0.7359831929206848,3.889305591583252,-1.2263164520263672
1728905899360717000,7.333717041015625,1.0885324478149414,3.232527256011963,-1.535970687866211
1728905899370715100,7.343715087890625,1.1195785999298096,3.2868826389312744,-1.5346622467041016
1728905899380713000,7.353712890625,1.3008317947387695,2.4435720443725586,-1.5165033340454102
1728905899390711800,7.3637119140625,1.3390436172485352,2.5078964233398438,-1.5140151977539062
1728905899400711000,7.3737109375,0.942775309085846,1.948979139328003,-0.6960935592651367
1728905899410709800,7.383709716796875,0.8035188913345337,1.6877009868621826,-0.2816190719604492
1728905899420708600,7.39370849609375,0.7726508975028992,1.438367486000061,-0.016979217529296875
1728905899430707500,7.40370751953125,0.5791460871696472,1.042668104171753,0.31331920623779297
1728905899440706300,7.413706298828125,0.5393126010894775,0.6611395478248596,0.4052543640136719
1728905899450704400,7.423704345703125,0.42211538553237915,0.20409691333770752,0.4310493469238281
1728905899460703200,7.433703125,0.2356312870979309,-0.3806341886520386,0.40749549865722656
1728905899470702000,7.4437021484375,0.14836156368255615,-0.8440989255905151,0.277099609375
1728905899480701000,7.453700927734375,0.04000002145767212,-1.156327247619629,0.25286102294921875
1728905899490699800,7.46369970703125,-0.21516895294189453,-1.3465790748596191,0.19829177856445312
1728905899500698600,7.47369873046875,-0.3504652976989746,-1.4613333940505981,0.3455381393432617
1728905899510697500,7.483697509765625,-0.3321884572505951,-1.3814947605133057,0.3592205047607422
1728905899520696300,7.4936962890625,-0.775959849357605,-1.598314642906189,0.6582269668579102
1728905899530695200,7.503695068359375,-1.1307897567749023,-1.5376735925674438,0.6581707000732422
1728905899540694000,7.513694091796875,-1.2568156719207764,-1.2548699378967285,0.5336790084838867
1728905899550692900,7.52369287109375,-1.2436615228652954,-1.1856610774993896,0.5479803085327148
1728905899560691700,7.533691650390625,-1.181222915649414,-0.799187183380127,0.5434598922729492
1728905899570690600,7.543690673828125,-1.0215380191802979,-0.48519444465637207,0.29983043670654297
1728905899580689400,7.553689453125,-0.781745433807373,-0.26201701164245605,-0.024888038635253906
1728905899590688300,7.563688232421875,-0.5970745086669922,-0.20623373985290527,-0.30570125579833984
1728905899600687000,7.57368701171875,-0.3615536689758301,-0.21933889389038086,-0.2788362503051758
1728905899610685700,7.583685791015625,-0.2523755133152008,-0.31677675247192383,0.04909992218017578
1728905899620684300,7.593684326171875,-0.24282793700695038,-0.44774580001831055,0.5347366333007812
1728905899630683100,7.60368310546875,-0.19850890338420868,-0.44969964027404785,1.0105953216552734
1728905899640682000,7.613681884765625,-0.012459665536880493,-0.6398355960845947,1.6488380432128906
1728905899650681300,7.623681396484375,0.04891279712319374,-0.8529477119445801,2.2031497955322266
1728905899660680700,7.6336806640625,0.11794190853834152,-1.218590497970581,2.8316822052001953
1728905899670680000,7.64368017578125,0.489603728055954,-1.9532592296600342,3.46500301361084
1728905899680680000,7.653679931640625,0.8039660453796387,-2.4162206649780273,4.121895790100098
1728905899690678500,7.663678466796875,0.2860410511493683,-2.8943424224853516,4.624643325805664
1728905899700677400,7.673677490234375,0.04418399930000305,-3.199737787246704,5.765554428100586
1728905899710676000,7.683676025390625,0.2083282768726349,-2.7997994422912598,5.424274444580078
1728905899720674800,7.6936748046875,0.4309346675872803,-2.2064619064331055,3.4849910736083984
1728905899730673700,7.703673583984375,0.14999940991401672,-1.0407960414886475,1.311844825744629
1728905899740672300,7.71367236328125,0.16290214657783508,0.010421276092529297,-0.4497098922729492
1728905899750672000,7.723671875,0.5330167412757874,0.07696938514709473,-2.072643756866455
1728905899760670500,7.73367041015625,0.6963140964508057,0.006392002105712891,-2.9987521171569824
1728905899770669300,7.74366943359375,0.3573153614997864,0.014142513275146484,-3.2054643630981445
1728905899780668200,7.753668212890625,-0.256131112575531,-0.1328134536743164,-3.126189708709717
1728905899790666800,7.763666748046875,-0.15631163120269775,-0.15918707847595215,-3.5611681938171387
1728905899800665600,7.77366552734375,0.12424129247665405,0.02544546127319336,-3.841843605041504
1728905899810664200,7.783664306640625,0.7377572059631348,-0.05950188636779785,-3.799170970916748
1728905899820663000,7.7936630859375,0.9819874167442322,0.08476948738098145,-3.805738925933838
1728905899830662000,7.803661865234375,1.145786166191101,0.2700004577636719,-3.7969822883605957
1728905899840660500,7.813660400390625,1.5963754653930664,0.32932615280151367,-3.57558536529541
1728905899850659300,7.823659423828125,1.9627209901809692,0.23192477226257324,-3.3248543739318848
1728905899860658200,7.833658203125,2.337592601776123,0.013031244277954102,-2.924473762512207
1728905899870656800,7.84365673828125,2.699497699737549,-0.2554128170013428,-2.3360538482666016
1728905899880655600,7.853655517578125,2.8393707275390625,-0.6120748519897461,-1.76566743850708
1728905899890654200,7.863654296875,2.621351718902588,-1.1836910247802734,-1.0583043098449707
1728905899900653000,7.873653076171875,2.0386288166046143,-1.5672695636749268,-0.4018993377685547
1728905899910652000,7.88365185546875,2.043644666671753,-1.5025217533111572,-0.37227535247802734
1728905899920650500,7.893650390625,0.7113327980041504,-2.0496745109558105,0.11705207824707031
1728905899930649300,7.9036494140625,0.7098363637924194,-1.984510898590088,0.14694881439208984
1728905899940648200,7.913648193359375,-0.47647249698638916,-2.460592269897461,0.08768272399902344
1728905899950646000,7.92364599609375,-1.1098971366882324,-2.4880752563476562,-0.13974857330322266
1728905899960644900,7.933644775390625,-1.3778345584869385,-2.572442054748535,-0.36685943603515625
1728905899970643700,7.943643798828125,-1.3604754209518433,-2.5289735794067383,-0.34238719940185547
1728905899980642300,7.953642333984375,-0.34100770950317383,-1.997851848602295,-1.1162042617797852
1728905899990641200,7.96364111328125,-0.3094921112060547,-1.9747323989868164,-1.098982810974121
1728905900000639700,7.9736396484375,1.0470833778381348,-1.384416103363037,-1.4346604347229004
1728905900010638600,7.983638671875,1.0769569873809814,-1.3730168342590332,-1.4233393669128418
1728905900020637200,7.99363720703125,1.1101338863372803,-0.9681706428527832,-1.0495014190673828
1728905900030636000,8.003635986328124,1.1284375190734863,-0.958460807800293,-1.0410232543945312
1728905900040635000,8.013634765625,0.7152519226074219,-0.5393929481506348,-0.4512643814086914
1728905900050633500,8.023633544921875,0.7448346018791199,-0.3314332962036133,-0.2665271759033203
1728905900060632000,8.033632080078124,0.7887982726097107,-0.08879709243774414,-0.12289047241210938
1728905900070631000,8.043630859375,0.7755659222602844,0.11236381530761719,0.02040576934814453
1728905900080629500,8.05362939453125,0.8125000596046448,0.3226332664489746,0.26404476165771484
1728905900090628400,8.06362841796875,0.876602292060852,0.5232019424438477,0.4072751998901367
1728905900100627200,8.073627197265624,1.0116899013519287,0.6997230052947998,0.46940135955810547
1728905900110625800,8.083625732421876,1.2106857299804688,0.8377244472503662,0.4552001953125
1728905900120624600,8.093624755859375,1.368030309677124,0.8399331569671631,0.3794565200805664
1728905900130623200,8.103623291015625,1.5475937128067017,0.8557326793670654,0.4173164367675781
1728905900140622000,8.1136220703125,1.5559728145599365,0.799506425857544,0.6237430572509766
1728905900150621000,8.123620849609376,1.5740877389907837,0.8127639293670654,0.6347427368164062
1728905900160619500,8.13361962890625,1.200218677520752,0.6483235359191895,0.9696264266967773
1728905900170618400,8.143618408203125,0.9457728266716003,0.49712133407592773,1.1729803085327148
1728905900180616700,8.15361669921875,1.0377671718597412,0.48009157180786133,1.3906965255737305
1728905900190615600,8.163615478515625,0.7454197406768799,0.2558474540710449,1.0980281829833984
1728905900200614100,8.1736142578125,0.6250122785568237,0.1181941032409668,0.8167581558227539
1728905900210613000,8.183613037109374,0.6428320407867432,0.12938594818115234,0.8269758224487305
1728905900220611800,8.19361181640625,0.6198159456253052,-0.1860947608947754,0.12851428985595703
1728905900230610400,8.2036103515625,0.784110426902771,-0.25779294967651367,-0.33237266540527344
1728905900240609300,8.213609375,0.7764492034912109,-0.2767372131347656,-0.47445011138916016
1728905900250608600,8.223608642578125,0.6287310123443604,-0.2773861885070801,-0.41967296600341797
1728905900260607500,8.233607421875,0.4375070333480835,-0.30356359481811523,-0.3938112258911133
1728905900270606000,8.243606201171875,0.34993743896484375,-0.2989959716796875,-0.4044060707092285
1728905900280605000,8.25360498046875,0.37537240982055664,-0.35280513763427734,-0.47518110275268555
1728905900290603800,8.263603759765624,0.39362573623657227,-0.3428621292114258,-0.46498727798461914
1728905900300602400,8.273602294921876,0.577663779258728,-0.42642736434936523,-0.4427003860473633
1728905900310601200,8.283601318359375,0.7599152326583862,-0.38542652130126953,-0.5494270324707031
1728905900320600000,8.29360009765625,0.8669091463088989,-0.3848133087158203,-0.6387786865234375
1728905900330598700,8.3035986328125,0.9266664981842041,-0.4103055000305176,-0.8306965827941895
1728905900340597500,8.313597412109376,0.9495511054992676,-0.49833154678344727,-0.9463539123535156
1728905900350595800,8.323595947265625,0.8438369035720825,-0.6558084487915039,-0.9019899368286133
1728905900360594000,8.333593994140625,0.6690233945846558,-0.8416528701782227,-0.7932448387145996
1728905900370592300,8.34359228515625,0.5166285037994385,-0.9528923034667969,-0.7205615043640137
1728905900380590600,8.353590576171875,0.6341046094894409,-1.2463889122009277,-0.6003108024597168
1728905900390588700,8.363588623046875,0.6497143507003784,-1.2362031936645508,-0.5900692939758301
1728905900400587800,8.373587890625,0.7243191003799438,-1.4090986251831055,-0.8792381286621094
1728905900410586600,8.383586669921876,0.7434965372085571,-1.4014477729797363,-0.8693485260009766
1728905900420585700,8.393585693359375,1.1158995628356934,-1.524775505065918,-1.3651866912841797
1728905900430584800,8.403584716796875,1.0556429624557495,-1.53941011428833,-1.4624638557434082
1728905900440584000,8.413583984375,0.8196038007736206,-1.521815299987793,-1.4944167137145996
1728905900450583000,8.4235830078125,0.6290156841278076,-1.5055437088012695,-1.4591045379638672
1728905900460582000,8.433581787109375,0.6299324035644531,-1.5196785926818848,-1.3686933517456055
1728905900470581000,8.4435810546875,0.6273461580276489,-1.584815502166748,-1.2239818572998047
1728905900480580600,8.45358056640625,0.5760382413864136,-1.688732624053955,-0.9912056922912598
1728905900490579500,8.463579345703126,0.41295719146728516,-1.8626089096069336,-0.7807636260986328
1728905900500578600,8.47357861328125,0.2935779094696045,-1.9672198295593262,-0.6715097427368164
1728905900510577700,8.48357763671875,0.26871705055236816,-2.0582799911499023,-0.3229842185974121
1728905900520576800,8.49357666015625,0.20423078536987305,-1.8566718101501465,-0.39899635314941406
1728905900530576000,8.503575927734374,0.47714877128601074,-1.6321120262145996,-0.5601077079772949
1728905900540575000,8.513574951171876,0.8250292539596558,-1.3707571029663086,-0.8375077247619629
1728905900550573300,8.5235732421875,1.096577763557434,-1.1013789176940918,-1.0979528427124023
1728905900560572200,8.533572265625,1.2283885478973389,-0.9312167167663574,-1.2408781051635742
1728905900570571300,8.5435712890625,1.232520580291748,-0.9533243179321289,-1.2524337768554688
1728905900580569600,8.553569580078126,1.539494514465332,-0.8390665054321289,-1.1060433387756348
1728905900590568700,8.563568603515625,1.370498776435852,-0.9460020065307617,-0.8607611656188965
1728905900600567800,8.57356787109375,1.1636433601379395,-0.995366096496582,-0.6142020225524902
1728905900610567000,8.58356689453125,1.1114104986190796,-1.0636253356933594,-0.3820629119873047
1728905900620565800,8.593565673828126,1.0192238092422485,-1.0309662818908691,-0.3217487335205078
1728905900630564900,8.60356494140625,0.8658324480056763,-0.9747233390808105,-0.32824039459228516
1728905900640563700,8.613563720703125,0.7420902252197266,-0.7929239273071289,-0.39017629623413086
1728905900650563300,8.623563232421875,0.7370078563690186,-0.8220248222351074,-0.40751123428344727
1728905900660563000,8.63356298828125,1.1379783153533936,-0.3515486717224121,-0.7230873107910156
1728905900670562600,8.6435625,1.3463712930679321,-0.26032161712646484,-0.7452301979064941
1728905900680562000,8.65356201171875,1.3739054203033447,-0.21661853790283203,-0.6824331283569336
1728905900690561800,8.663561767578125,1.3684418201446533,-0.25559234619140625,-0.7043991088867188
1728905900700560400,8.673560302734375,1.214047908782959,-0.2565784454345703,-0.45655155181884766
1728905900710559200,8.683559326171874,0.8645131587982178,-0.17964792251586914,-0.07050323486328125
1728905900720558000,8.69355810546875,0.8385317325592041,-0.015668392181396484,-0.05355548858642578
1728905900730556700,8.703556640625,0.9650458097457886,0.13878965377807617,-0.22377490997314453
1728905900740555300,8.71355517578125,1.2809697389602661,0.2836580276489258,-0.5090703964233398
1728905900750554000,8.72355419921875,1.2765392065048218,0.23452377319335938,-0.5341329574584961
1728905900760552700,8.733552734375,1.5348639488220215,0.17427301406860352,-1.0433449745178223
1728905900770551600,8.743551513671875,1.6762311458587646,-0.1671772003173828,-1.1079392433166504
1728905900780550400,8.75355029296875,1.3387713432312012,-0.44670748710632324,-1.0268535614013672
1728905900790549000,8.763549072265626,1.3248002529144287,-0.49872469902038574,-1.0542974472045898
1728905900800547800,8.7735478515625,1.294914722442627,-0.9402351379394531,-1.0465340614318848
1728905900810546400,8.78354638671875,1.5214276313781738,-1.0753350257873535,-1.137498378753662
1728905900820545300,8.793545166015624,1.6253455877304077,-1.12147855758667,-1.1355886459350586
1728905900830544000,8.8035439453125,1.6078320741653442,-1.180924415588379,-1.1653070449829102
1728905900840542700,8.813542724609375,1.7319998741149902,-1.2293624877929688,-0.642333984375
1728905900850542000,8.8235419921875,1.7108886241912842,-1.291142225265503,-0.6728143692016602
1728905900860541000,8.833541015625,2.0366196632385254,-1.2258296012878418,-0.10748291015625
1728905900870539500,8.84353955078125,2.342512607574463,-1.211005449295044,0.1364593505859375
1728905900880539100,8.8535390625,2.6261603832244873,-1.1916580200195312,0.49001216888427734
1728905900890538000,8.8635380859375,2.5954320430755615,-1.0857839584350586,0.893641471862793
1728905900900536600,8.87353662109375,2.5908050537109375,-1.0821738243103027,1.3704233169555664
1728905900910535400,8.883535400390626,2.636700391769409,-1.2310690879821777,1.8445549011230469
1728905900920534300,8.8935341796875,2.8025825023651123,-1.15199613571167,1.976064682006836
1728905900930532900,8.903532958984375,2.770993232727051,-1.2298433780670166,1.9430923461914062
1728905900940531700,8.91353173828125,3.3207058906555176,-1.6245346069335938,2.3926515579223633
1728905900950530300,8.9235302734375,3.285172462463379,-1.6966726779937744,2.3623733520507812
1728905900960529200,8.933529052734375,3.2190685272216797,-1.6590557098388672,2.908477783203125
1728905900970528000,8.943528076171875,3.090264320373535,-1.4847345352172852,3.2766523361206055
1728905900980526600,8.953526611328124,2.924135208129883,-1.166815996170044,3.4186744689941406
1728905900990525400,8.963525390625,2.8783419132232666,-1.2210688591003418,3.3944740295410156
1728905901000524000,8.97352392578125,3.057231903076172,-0.5910770893096924,3.3571577072143555
1728905901010523000,8.98352294921875,3.007974147796631,-0.6369996070861816,3.335751533508301
1728905901020521700,8.993521728515624,3.6036441326141357,-0.5139980316162109,2.8210668563842773
1728905901030520600,9.0035205078125,3.633978843688965,-0.3729362487792969,2.8257322311401367
1728905901040519200,9.013519287109375,3.296584367752075,-0.10166645050048828,2.7798519134521484
1728905901050518000,9.02351806640625,2.811878204345703,0.33571577072143555,2.850724220275879
1728905901060516600,9.0335166015625,2.232750415802002,0.8261326551437378,2.3611221313476562
1728905901073951000,9.046950927734375,1.4072827100753784,1.1792833805084229,2.281064987182617
1728905901083949800,9.05694970703125,1.1119377613067627,1.375222086906433,2.1442413330078125
1728905901093948400,9.066948486328124,1.0349942445755005,1.402222990989685,2.141665458679199
1728905901103947300,9.076947265625,0.1301315426826477,1.6471363306045532,2.2902145385742188
1728905901113945900,9.08694580078125,-1.6070582866668701,1.6883217096328735,2.269192695617676
1728905901123944400,9.0969443359375,-1.6650714874267578,1.7322007417678833,2.2751970291137695
1728905901133943300,9.106943359375,-2.135254383087158,1.5385626554489136,1.9721307754516602
1728905901143942100,9.116942138671876,-2.4403157234191895,1.4482371807098389,1.4722023010253906
1728905901153940000,9.12693994140625,-2.5130701065063477,1.2592365741729736,1.3276739120483398
1728905901163938800,9.136938720703125,-2.2515625953674316,0.8255078792572021,1.409316062927246
1728905901173937400,9.1469375,-2.130763053894043,0.4362785816192627,1.700052261352539
1728905901183936300,9.156936279296875,-2.951846122741699,0.2897484302520752,2.027029037475586
1728905901193935000,9.16693505859375,-3.912583351135254,0.39492201805114746,1.7721548080444336
1728905901203933700,9.17693359375,-3.1489169597625732,0.02194809913635254,1.4134025573730469
1728905901213932300,9.186932373046876,-3.1128578186035156,0.04511857032775879,1.4240970611572266
1728905901223931100,9.19693115234375,-1.6987966299057007,-1.0177040100097656,0.42893028259277344
1728905901233930000,9.206929931640625,-1.6153643131256104,-1.387326717376709,0.4079742431640625
1728905901243928600,9.216928466796874,-1.7706435918807983,-1.2471377849578857,0.30400943756103516
1728905901253927400,9.226927490234376,-1.703993558883667,-1.0491232872009277,0.09364891052246094
1728905901263926300,9.23692626953125,-1.5315117835998535,-0.781649112701416,-0.2850151062011719
1728905901273924900,9.2469248046875,-1.5899919271469116,-0.4946119785308838,-0.8628082275390625
1728905901283923700,9.256923828125,-1.261106014251709,-0.3313615322113037,-1.4598522186279297
1728905901293922600,9.266922607421876,-1.2004209756851196,-0.3538663387298584,-1.4588203430175781
1728905901303921200,9.276921142578125,-1.3880279064178467,0.468609094619751,-1.5920662879943848
1728905901313920000,9.286919921875,-1.3298749923706055,0.4435691833496094,-1.5912795066833496
1728905901323918600,9.296918701171874,-1.2498866319656372,0.1015172004699707,-0.9307994842529297
1728905901333917400,9.30691748046875,-1.1836591958999634,0.07663869857788086,-0.9277515411376953
1728905901343916000,9.316916015625,0.21368014812469482,-0.22659683227539062,-1.470430850982666
1728905901353914000,9.3269140625,0.2783306837081909,-0.26157617568969727,-1.469520092010498
1728905901363912200,9.336912109375,0.9024071097373962,0.18410801887512207,-2.473759174346924
1728905901373910300,9.34691015625,0.7856254577636719,0.4917161464691162,-2.978886604309082
1728905901383908000,9.356908203125,0.9705851078033447,0.7937973737716675,-3.36314058303833
1728905901393906000,9.366906005859375,1.018701195716858,0.7442871332168579,-3.367326259613037
1728905901403904000,9.376904052734375,1.457039475440979,1.1649950742721558,-3.572996139526367
1728905901413902800,9.38690283203125,1.4904565811157227,1.101248860359192,-3.367642879486084
1728905901423901200,9.396901123046876,1.1284774541854858,1.1386427879333496,-2.858704090118408
1728905901433899300,9.406899169921875,0.2984797954559326,1.2493776082992554,-2.012679100036621
1728905901443898000,9.416898193359375,0.08340620994567871,1.1096112728118896,-1.4880800247192383
1728905901453897500,9.4268974609375,0.8276395797729492,0.43208587169647217,-1.225235939025879
1728905901463896600,9.436896484375,1.6426560878753662,-0.18966102600097656,-0.9948348999023438
1728905901473895400,9.4468955078125,1.7599819898605347,-0.5081698894500732,-0.9513330459594727
1728905901483894300,9.456894287109375,1.4917488098144531,-0.07396578788757324,-0.49891185760498047
1728905901493893000,9.46689306640625,1.465942621231079,0.6459656953811646,0.1830310821533203
1728905901503892000,9.47689208984375,1.6830201148986816,1.4164786338806152,0.783966064453125
1728905901513890800,9.486890869140625,1.987575650215149,2.0233328342437744,1.3167991638183594
1728905901523889700,9.4968896484375,2.269026517868042,2.371624231338501,1.635289192199707
1728905901533888800,9.506888671875,2.2633328437805176,2.2829837799072266,1.6188697814941406
1728905901543887600,9.5168876953125,2.4125263690948486,2.8809289932250977,2.1319637298583984
1728905901553885700,9.5268857421875,2.4142446517944336,2.806790828704834,2.1209869384765625
1728905901563884500,9.536884521484374,2.0429506301879883,3.0675196647644043,1.6669034957885742
1728905901573883400,9.54688330078125,2.0530877113342285,3.0077006816864014,1.6608476638793945
1728905901583882200,9.55688232421875,1.3201863765716553,2.88468337059021,1.075118064880371
1728905901593881000,9.566881103515625,1.238236904144287,2.73451828956604,0.727717399597168
1728905901603880000,9.5768798828125,0.8139663934707642,2.823558807373047,0.4178762435913086
1728905901613878800,9.586878662109376,0.7935434579849243,2.981729745864868,0.2235870361328125
1728905901623877600,9.596877685546875,0.740854024887085,2.8448450565338135,-0.2385997772216797
1728905901633876500,9.60687646484375,0.8004279136657715,2.531165599822998,-0.8273105621337891
1728905901643875300,9.616875244140624,1.0396711826324463,2.021016836166382,-1.365793228149414
1728905901653875000,9.626875,1.3108789920806885,1.385026454925537,-1.9883384704589844
1728905901663874600,9.63687451171875,1.679636836051941,0.6482914686203003,-2.4555063247680664
1728905901673874200,9.646874267578125,2.111830949783325,0.007445037364959717,-2.7786712646484375
1728905901683874000,9.6568740234375,2.0999155044555664,-0.38098764419555664,-2.848090648651123
1728905901693873700,9.666873779296875,1.6293268203735352,-0.7869678735733032,-2.661897659301758
1728905901703873300,9.676873291015625,0.7558950185775757,-0.9750617742538452,-2.2805166244506836
1728905901713872100,9.6868720703125,-0.10275816917419434,-1.1445438861846924,-1.6900568008422852
1728905901723871500,9.69687158203125,-0.8494830131530762,-1.1584858894348145,-1.0908575057983398
1728905901733870800,9.706870849609375,-1.2019376754760742,-1.1570184230804443,-0.525700569152832
1728905901743869700,9.71686962890625,-1.1397325992584229,-1.1795231103897095,-0.056128501892089844
1728905901753868300,9.726868408203124,-0.41945672035217285,-1.0346481800079346,0.1744213104248047
1728905901763867100,9.7368671875,0.10840678215026855,-0.8380451798439026,0.44594764709472656
1728905901773865700,9.74686572265625,0.45103657245635986,-0.7142313718795776,0.7681369781494141
1728905901783864600,9.756864501953125,0.49347031116485596,-0.5180211067199707,1.1190519332885742
1728905901793863400,9.766863525390624,0.4834638833999634,-0.5357005596160889,1.1158838272094727
1728905901803862000,9.776862060546875,0.24560999870300293,0.18253012001514435,1.2971744537353516
1728905901813860600,9.786860595703125,0.23883414268493652,0.16905979812145233,1.2950515747070312
1728905901823859500,9.796859375,0.7510755062103271,0.9951034784317017,0.5642242431640625
1728905901833858000,9.806858154296876,0.47801661491394043,1.4563044309616089,0.6378583908081055
1728905901843857000,9.81685693359375,-0.14304280281066895,1.698469877243042,0.9999361038208008
1728905901853856300,9.826856201171875,-0.9026134014129639,1.68864107131958,1.205428123474121
1728905901863854800,9.836854736328124,-1.0032219886779785,1.378626823425293,1.607436180114746
1728905901873853700,9.846853759765626,-1.0060129165649414,1.3686504364013672,1.6064767837524414
1728905901883852500,9.8568525390625,0.2277216911315918,0.8445566892623901,0.9634265899658203
1728905901893851100,9.86685107421875,0.5592520236968994,0.6121580600738525,0.8628406524658203
1728905901903850000,9.87685009765625,0.31879448890686035,0.42009997367858887,0.9205408096313477
1728905901913848800,9.886848876953126,-0.1649017333984375,0.25056350231170654,0.8847770690917969
1728905901923847400,9.896847412109375,-0.3509829044342041,0.21497517824172974,0.8015680313110352
1728905901933846300,9.90684619140625,-0.6051173210144043,0.26353317499160767,0.5375165939331055
1728905901943845000,9.91684521484375,-0.6479470729827881,0.40063247084617615,0.19536209106445312
1728905901953843700,9.92684375,-0.5588846206665039,0.43351563811302185,0.14845561981201172
1728905901963842600,9.936842529296875,-0.4187002182006836,0.5171583890914917,0.051619529724121094
1728905901973841200,9.946841064453125,-0.3182036876678467,0.6292264461517334,-0.08557319641113281
1728905901983840000,9.956840087890624,-0.3025953769683838,0.7549558877944946,-0.21514129638671875
1728905901993838800,9.9668388671875,-0.26938414573669434,0.8699468374252319,-0.5383749008178711
1728905902003837400,9.97683740234375,-0.28617024421691895,0.908738374710083,-0.7920856475830078
1728905902013836300,9.986836181640625,-0.4986302852630615,0.9192565679550171,-0.8283681869506836
1728905902023835100,9.996835205078124,-0.48354315757751465,0.7936574220657349,-0.7964553833007812
1728905902033833700,10.006833740234375,-0.29219627380371094,0.6078551411628723,-0.7607202529907227
1728905902043832600,10.01683251953125,0.2084333896636963,0.4522399306297302,-1.0584535598754883
1728905902053831400,10.02683154296875,0.2207655906677246,0.46113139390945435,-1.0546512603759766
1728905902063830000,10.036830078125,1.6392356157302856,0.899050235748291,-2.164036750793457
1728905902073828900,10.046828857421875,2.4542949199676514,1.0640969276428223,-2.935337543487549
1728905902083827500,10.056827392578125,1.8822999000549316,1.3970181941986084,-3.3357205390930176
1728905902093826300,10.066826416015624,-0.25929999351501465,1.6960949897766113,-2.941338539123535
1728905902103825200,10.0768251953125,-2.9817707538604736,1.6790497303009033,-1.643610954284668
1728905902113823700,10.08682373046875,-3.008650302886963,1.7158886194229126,-1.6482782363891602
1728905902123822600,10.096822509765625,-3.8973634243011475,0.4901604652404785,0.8743019104003906
1728905902133821200,10.1068212890625,-3.8997762203216553,0.5322296619415283,0.8769216537475586
1728905902143820000,10.116820068359376,-0.13886785507202148,-0.7143617272377014,1.2378864288330078
1728905902153818600,10.126818603515625,0.39687371253967285,-0.5978966951370239,1.309600830078125
1728905902163817500,10.1368173828125,0.12231850624084473,-0.30452650785446167,1.4443120956420898
1728905902173816300,10.14681640625,-0.5196795463562012,-0.06677812337875366,1.525242805480957
1728905902183815000,10.15681494140625,-1.4193272590637207,0.31375181674957275,1.4562511444091797
1728905902193813800,10.166813720703125,-1.4077649116516113,0.3259677290916443,1.4605741500854492
1728905902203812400,10.176812255859375,-1.099797248840332,1.6067531108856201,0.6920957565307617
1728905902213811000,10.18681103515625,-0.16652727127075195,2.1390743255615234,0.23921680450439453
1728905902223810300,10.196810302734375,0.4400749206542969,2.5313374996185303,-0.5589895248413086
1728905902233809000,10.206808837890625,1.1443606615066528,2.7557969093322754,-1.0938901901245117
1728905902243807700,10.216807861328125,1.6957818269729614,2.8778076171875,-1.4756584167480469
1728905902253806600,10.226806640625,1.749315619468689,2.883551597595215,-1.459040641784668
1728905902263805200,10.23680517578125,2.101161003112793,3.161909580230713,-1.770705223083496
1728905902273804000,10.246803955078125,2.146228551864624,3.1746933460235596,-1.7554206848144531
1728905902283803000,10.256802978515625,1.543461561203003,3.123028039932251,-2.1557674407958984
1728905902293801500,10.266801513671876,0.40981340408325195,2.995878219604492,-1.7420287132263184
1728905902303800300,10.27680029296875,-0.7002115249633789,2.7259271144866943,-1.127507209777832
1728905902313799000,10.286798828125,-0.6827361583709717,2.748448371887207,-1.119400978088379
1728905902323797800,10.2967978515625,0.9010779857635498,1.4896210432052612,-0.6069631576538086
1728905902333796600,10.306796630859376,1.4960509538650513,0.6238824725151062,-0.6269998550415039
1728905902343795200,10.316795166015625,1.0289852619171143,-0.39157211780548096,-0.43228626251220703
1728905902353794000,10.3267939453125,1.0414741039276123,-0.3643672466278076,-0.4249095916748047
1728905902363792100,10.336792236328124,-0.5684158802032471,-2.161885976791382,0.7620573043823242
1728905902373790000,10.3467900390625,-1.2386913299560547,-2.526948928833008,1.3693933486938477
1728905902383788000,10.3567880859375,-1.4883785247802734,-2.26613187789917,1.8662443161010742
1728905902393786400,10.366786376953126,-1.4920644760131836,-2.237297296524048,1.8687639236450195
1728905902403785000,10.376784912109375,0.6624181270599365,-1.2268284559249878,1.0150623321533203
1728905902413783800,10.38678369140625,0.7241120338439941,-0.647452712059021,0.2808103561401367
1728905902423782700,10.39678271484375,0.29973697662353516,-0.0726999044418335,-0.15004825592041016
1728905902433781500,10.406781494140626,0.31207275390625,-0.05115234851837158,-0.14277267456054688
1728905902443780000,10.416780029296875,1.4383599758148193,0.21213412284851074,-1.4044642448425293
1728905902453779000,10.426779052734375,1.582809329032898,0.060064077377319336,-1.747739315032959
1728905902463777500,10.436777587890624,1.6104227304458618,-0.5271934270858765,-1.4089345932006836
1728905902473776400,10.4467763671875,1.5865780115127563,-0.5158147811889648,-1.4154367446899414
1728905902483775200,10.456775146484375,1.449709177017212,-1.39230215549469,-0.0901651382446289
1728905902493774000,10.466774169921875,1.4987770318984985,-1.5670409202575684,0.5919466018676758
1728905902503773200,10.476773193359374,0.9985740184783936,-1.4289883375167847,1.2685089111328125
1728905902513772000,10.48677197265625,-0.12625622749328613,-1.1352070569992065,1.9665155410766602
1728905902523770600,10.4967705078125,-0.9403960704803467,-0.8922224044799805,2.493361473083496
1728905902533769500,10.50676953125,-1.151991844177246,-0.6836262941360474,2.72562313079834
1728905902543768600,10.5167685546875,-0.8244898319244385,-0.49325358867645264,2.46706485748291
1728905902553767700,10.526767578125,-0.8238608837127686,-0.4694044589996338,2.471555709838867
1728905902563766800,10.536766845703125,0.011741399765014648,-0.308701753616333,1.4658136367797852
1728905902573766000,10.546765869140625,0.3853576183319092,-0.16917705535888672,0.8414993286132812
1728905902583765000,10.556764892578125,0.6757700443267822,0.05761396884918213,0.4692831039428711
1728905902593763800,10.566763916015624,0.6976780891418457,0.05052518844604492,0.4753532409667969
1728905902603763000,10.576762939453126,1.321478247642517,0.6994397640228271,0.22437381744384766
1728905902613762000,10.586761962890625,1.8619062900543213,0.9667001366615295,0.17134380340576172
1728905902623761200,10.59676123046875,2.144362688064575,1.1348305940628052,0.2999248504638672
1728905902633760300,10.60676025390625,2.156914234161377,1.130427360534668,0.3034524917602539
1728905902643759400,10.61675927734375,1.4291012287139893,1.4632582664489746,1.077322006225586
1728905902653758500,10.626758544921875,1.2421739101409912,1.560396432876587,1.4611635208129883
1728905902663758300,10.63675830078125,1.3341315984725952,1.5911580324172974,1.6764392852783203
1728905902673758200,10.64675830078125,1.3969107866287231,1.5305358171463013,1.7088985443115234
1728905902683758000,10.656758056640625,1.307210087776184,1.3822022676467896,1.5100584030151367
1728905902693757700,10.6667578125,0.9738340377807617,1.2313050031661987,1.2065677642822266
1728905902703756500,10.676756591796876,0.8711745738983154,1.0555696487426758,0.9612388610839844
1728905902713755600,10.686755615234375,0.9112310409545898,0.784522533416748,0.6328287124633789
1728905902723754800,10.696754638671875,0.9526019096374512,0.5228843688964844,0.3528604507446289
1728905902733753900,10.70675390625,0.808032751083374,0.2920881509780884,0.11634445190429688
1728905902743753000,10.7167529296875,0.5739636421203613,0.1279834508895874,-0.017507553100585938
1728905902753752000,10.726751953125,0.48448920249938965,0.020224928855895996,0.0802459716796875
1728905902763751200,10.736751220703125,0.48970484733581543,0.001832127571105957,0.28989219665527344
1728905902773750300,10.746750244140625,0.5685527324676514,0.06508767604827881,0.4151792526245117
1728905902783749000,10.7567490234375,0.6403963565826416,0.05811488628387451,0.3507423400878906
1728905902793748200,10.766748291015626,0.502213716506958,0.038743019104003906,0.26204776763916016
1728905902803747000,10.7767470703125,0.26186490058898926,0.06349921226501465,0.27631568908691406
1728905902813746000,10.786745849609375,0.24741268157958984,0.09985923767089844,0.2549629211425781
1728905902823744800,10.796744873046874,0.3782212734222412,0.17171943187713623,0.1982259750366211
1728905902833743600,10.80674365234375,0.13923025131225586,0.2981506586074829,0.2161388397216797
1728905902843742500,10.816742431640625,-0.14625263214111328,0.4556232690811157,0.31990528106689453
1728905902853741000,10.826740966796875,0.008659124374389648,0.5913512706756592,0.3637571334838867
1728905902863740000,10.836739990234374,0.25641727447509766,0.6850788593292236,0.3433980941772461
1728905902873738800,10.84673876953125,0.45426177978515625,0.6938529014587402,0.35886669158935547
1728905902883737300,10.8567373046875,0.7374234199523926,0.577201247215271,0.3068256378173828
1728905902893736200,10.866736083984375,0.8274762630462646,0.4430506229400635,0.1510753631591797
1728905902903734800,10.87673486328125,0.6015303134918213,0.3638254404067993,0.1308879852294922
1728905902913733600,10.886733642578125,0.6070635318756104,0.37591850757598877,0.13596630096435547
1728905902923732200,10.896732177734375,-0.1929011344909668,0.25205397605895996,0.1590290069580078
1728905902933731000,10.90673095703125,-0.4394378662109375,0.2868969440460205,0.3275327682495117
1728905902943730000,10.91672998046875,-0.5787532329559326,0.343532919883728,0.39780330657958984
1728905902953727700,10.926727783203125,-0.5789496898651123,0.35626041889190674,0.40091609954833984
1728905902963725600,10.9367255859375,-0.3385899066925049,0.3674396276473999,0.3370475769042969
1728905902973723400,10.946723388671876,-0.047393798828125,0.30731916427612305,0.1460714340209961
1728905902983722200,10.95672216796875,0.12181591987609863,0.30517578125,0.0073299407958984375
1728905902993721000,10.96672119140625,0.1221458911895752,0.31073427200317383,0.008861541748046875
1728905903003719700,10.9767197265625,0.2615163326263428,0.4031473398208618,-0.35716819763183594
1728905903013718500,10.986718505859375,0.3491799831390381,0.49830162525177,-0.4729146957397461
1728905903023716600,10.996716552734375,0.2699563503265381,0.6370548009872437,-0.6041269302368164
1728905903033715200,11.006715087890624,0.2626607418060303,0.6356085538864136,-0.607295036315918
1728905903043714000,11.016714111328126,0.32906341552734375,0.8219029903411865,-0.9485740661621094
1728905903053713000,11.026712890625,0.1318511962890625,0.9112731218338013,-1.0125155448913574
1728905903063711500,11.03671142578125,-0.05022859573364258,0.9497822523117065,-0.9742541313171387
1728905903073710300,11.04671044921875,-0.2937619686126709,1.0231974124908447,-0.8793525695800781
1728905903083709200,11.056709228515626,-0.3541851043701172,1.0885753631591797,-0.8234596252441406
1728905903093707800,11.066707763671875,-0.4007599353790283,1.1446994543075562,-0.7035894393920898
1728905903103706600,11.07670654296875,-0.4487144947052002,1.1419707536697388,-0.6204614639282227
1728905903113705200,11.086705322265624,-0.24115347862243652,1.1133977174758911,-0.5882673263549805
1728905903123704000,11.0967041015625,-0.03584027290344238,1.0662375688552856,-0.551661491394043
1728905903133703000,11.106702880859375,0.01729440689086914,1.039483904838562,-0.3720989227294922
1728905903143701500,11.116701416015625,-0.015790224075317383,1.0119667053222656,-0.1720132827758789
1728905903153700400,11.126700439453124,-0.04285717010498047,0.9670469760894775,0.1161966323852539
1728905903163699200,11.13669921875,-0.22373390197753906,0.9002704620361328,0.45683765411376953
1728905903173697800,11.14669775390625,-0.6981651782989502,0.855046272277832,0.7372541427612305
1728905903183696600,11.156696533203124,-0.9123110771179199,0.8051005601882935,0.9217338562011719
1728905903193695500,11.166695556640626,-0.8051788806915283,0.7235375642776489,0.8965301513671875
1728905903203694000,11.176694091796875,-0.8673784732818604,0.6963628530502319,0.7262649536132812
1728905903213693000,11.18669287109375,-0.7677667140960693,0.6424713134765625,0.4965686798095703
1728905903223691500,11.19669140625,-0.46750593185424805,0.5684957504272461,0.2363109588623047
1728905903233690000,11.206690185546876,-0.2782418727874756,0.5028209686279297,-0.11940193176269531
1728905903243689000,11.21668896484375,-0.15280985832214355,0.4718064069747925,-0.47986793518066406
1728905903253688300,11.226688232421875,-0.16324639320373535,0.4496004581451416,-0.48827171325683594
1728905903263688000,11.23668798828125,-0.1524817943572998,0.34871232509613037,-0.963505744934082
1728905903273687800,11.246687744140624,-0.2450559139251709,0.26278698444366455,-1.103506088256836
1728905903283686400,11.256686279296876,-0.4534568786621094,0.22796201705932617,-1.111863136291504
1728905903293685200,11.266685302734375,-0.6825344562530518,0.18233931064605713,-0.9982986450195312
1728905903303683800,11.276683837890625,-0.6968226432800293,0.16384553909301758,-1.0068435668945312
1728905903313682700,11.2866826171875,-0.9523460865020752,0.06178629398345947,-0.7397661209106445
1728905903323682000,11.29668212890625,-1.1309573650360107,-0.038062214851379395,-0.4964771270751953
1728905903333681000,11.306680908203125,-1.2683050632476807,-0.09060215950012207,-0.30335521697998047
1728905903343679500,11.316679443359375,-1.2815883159637451,-0.15704822540283203,-0.09554290771484375
1728905903353678300,11.32667822265625,-1.3146476745605469,-0.2382972240447998,0.038130760192871094
1728905903363677200,11.33667724609375,-1.3582203388214111,-0.33986973762512207,0.07110309600830078
1728905903373675800,11.34667578125,-1.426238775253296,-0.4980384111404419,0.039398193359375
1728905903383674600,11.356674560546875,-1.5453338623046875,-0.6241214275360107,-0.05224323272705078
1728905903393673500,11.366673583984374,-1.6182889938354492,-0.6893255710601807,-0.1418285369873047
1728905903403672000,11.376672119140625,-1.5427262783050537,-0.6742333173751831,-0.30602359771728516
1728905903413671000,11.3866708984375,-1.162914752960205,-0.6121735572814941,-0.45139503479003906
1728905903423669500,11.39666943359375,-0.7324504852294922,-0.516564130783081,-0.6207380294799805
1728905903433668400,11.40666845703125,-0.46523070335388184,-0.4220390319824219,-0.7087125778198242
1728905903443667200,11.416667236328125,-0.0725562572479248,-0.29803192615509033,-0.8254795074462891
1728905903453665800,11.426665771484375,0.35288453102111816,-0.20829236507415771,-1.0473251342773438
1728905903463664600,11.43666455078125,0.35584354400634766,-0.05649077892303467,-1.1373100280761719
1728905903473663500,11.44666357421875,0.5428347587585449,0.022580385208129883,-1.1243629455566406
1728905903483662000,11.456662109375,0.46107935905456543,0.11784493923187256,-0.9512090682983398
1728905903493661000,11.466660888671875,0.26117658615112305,0.20137310028076172,-0.7662410736083984
1728905903503659500,11.476659423828124,0.1708676815032959,0.28885751962661743,-0.36602783203125
1728905903513658400,11.486658447265626,0.16100144386291504,0.29524171352386475,0.0008182525634765625
1728905903523657200,11.4966572265625,-0.002663850784301758,0.21857088804244995,0.36291980743408203
1728905903533655800,11.50665576171875,-0.17346835136413574,0.04832327365875244,0.7203445434570312
1728905903543654700,11.516654541015624,-0.2930722236633301,-0.11111032962799072,0.8816709518432617
1728905903553653500,11.526653564453126,-0.3089778423309326,-0.1381312608718872,0.8738737106323242
1728905903563652000,11.536652099609375,-0.2256176471710205,-0.3410050868988037,0.7785091400146484
1728905903573651000,11.54665087890625,0.10398745536804199,-0.37170910835266113,0.509730339050293
1728905903583649800,11.55664990234375,0.36678409576416016,-0.3537684679031372,0.3024263381958008
1728905903593648600,11.566648681640626,0.27666187286376953,-0.3216336965560913,0.24500274658203125
1728905903603647700,11.576647705078125,0.10138487815856934,-0.1840410828590393,0.37970542907714844
1728905903613646600,11.586646484375,0.32602834701538086,-0.11721616983413696,0.41645145416259766
1728905903623645700,11.596645751953124,0.3912794589996338,-0.053008198738098145,0.4894256591796875
1728905903633644500,11.60664453125,0.2581789493560791,0.004636406898498535,0.6200885772705078
1728905903643643600,11.6166435546875,0.4797964096069336,0.04423022270202637,0.7246665954589844
1728905903653642800,11.626642822265625,0.6558024883270264,0.07259881496429443,0.6456794738769531
1728905903663641900,11.636641845703124,0.6330432891845703,0.1764034628868103,0.5794801712036133
1728905903673641000,11.646640869140626,0.5375857353210449,0.2579047679901123,0.5498294830322266
1728905903683639800,11.656639892578125,0.5007596015930176,0.4033581018447876,0.5925331115722656
1728905903693639000,11.666638916015625,0.6439361572265625,0.5117030739784241,0.6379032135009766
1728905903703638000,11.676637939453125,0.830956220626831,0.5996440649032593,0.6309547424316406
1728905903713637000,11.68663720703125,0.9042117595672607,0.6986752152442932,0.7011013031005859
1728905903723636200,11.69663623046875,0.8965258598327637,0.7683128714561462,0.7596149444580078
1728905903733635000,11.706635009765625,0.9573107957839966,0.8558496236801147,0.8035526275634766
1728905903743634200,11.71663427734375,1.0080903768539429,0.955969512462616,0.7852153778076172
1728905903753633300,11.72663330078125,0.897951602935791,1.0494111776351929,0.7811365127563477
1728905903763632400,11.73663232421875,0.7804081439971924,1.1269237995147705,0.6573657989501953
1728905903773631500,11.746631591796875,0.9076590538024902,1.1119731664657593,0.42852210998535156
1728905903783630300,11.75663037109375,1.1519386768341064,1.0526702404022217,0.0926971435546875
1728905903793629400,11.76662939453125,1.2231249809265137,0.9377335906028748,-0.1825847625732422
1728905903803628500,11.776628662109376,1.2507288455963135,0.7924027442932129,-0.36200809478759766
1728905903813627600,11.786627685546875,1.161908507347107,0.6650248765945435,-0.4865388870239258
1728905903823626800,11.796626708984375,0.7407364845275879,0.5368807315826416,-0.4676656723022461
1728905903833625600,11.80662548828125,0.31433606147766113,0.38860562443733215,-0.3560628890991211
1728905903843624700,11.816624755859374,0.17785429954528809,0.28821754455566406,-0.3239145278930664
1728905903853623800,11.826623779296876,0.30681657791137695,0.23870474100112915,-0.48571300506591797
1728905903863623000,11.836622802734375,0.3411900997161865,0.17903763055801392,-0.6567306518554688
1728905903873621800,11.846621826171875,0.29908180236816406,0.11881309747695923,-0.7726812362670898
1728905903883620900,11.856620849609374,0.4240097999572754,0.04121905565261841,-0.9845781326293945
1728905903893619700,11.86661962890625,0.5471940040588379,-0.01349949836730957,-1.263361930847168
1728905903903618600,11.87661865234375,0.491408109664917,-0.13149458169937134,-1.3600645065307617
1728905903913617400,11.886617431640625,0.3402109146118164,-0.23971420526504517,-1.2036094665527344
1728905903923616000,11.896615966796874,0.19347214698791504,-0.2828977704048157,-1.0360107421875
1728905903933614800,11.90661474609375,0.15460944175720215,-0.25973784923553467,-0.7279462814331055
1728905903943613400,11.916613525390625,0.4606144428253174,-0.299400269985199,-0.34405994415283203
1728905903953611300,11.926611328125,0.45896077156066895,-0.2895928621292114,-0.34368038177490234
1728905903963609000,11.936609130859376,0.10095500946044922,-0.26550906896591187,0.4892301559448242
1728905903973607200,11.946607177734375,0.09621453285217285,-0.25621432065963745,0.4885721206665039
1728905903983605800,11.956605712890624,0.16942644119262695,-0.2986345887184143,0.9431161880493164
1728905903993604600,11.9666044921875,0.16681575775146484,-0.29076898097991943,0.9430160522460938
1728905904003603200,11.976603271484375,0.4453251361846924,-0.3023766875267029,0.998295783996582
1728905904013602000,11.98660205078125,0.4449429512023926,-0.2948550581932068,0.9989204406738281
1728905904023600600,11.9966005859375,0.37801027297973633,-0.24828213453292847,0.6454277038574219
1728905904033599500,12.006599609375,0.056671142578125,-0.15228521823883057,0.5935573577880859
1728905904043598300,12.016598388671875,0.28084444999694824,-0.11940264701843262,0.4723386764526367
1728905904053597000,12.026596923828125,0.2824094295501709,-0.10753977298736572,0.47406005859375
1728905904063595800,12.036595703125,0.6010169982910156,-0.017265617847442627,0.04534339904785156
1728905904073594400,12.046594482421876,0.5849506855010986,-0.020464658737182617,-0.10997486114501953
1728905904083593200,12.05659326171875,0.5787868499755859,-0.03051459789276123,-0.1930522918701172
1728905904093592000,12.066592041015625,0.5844440460205078,-0.02209758758544922,-0.34298038482666016
1728905904103590700,12.076590576171874,0.5348572731018066,0.03792762756347656,-0.4161672592163086
1728905904113589500,12.086589599609376,0.5372669696807861,0.06057405471801758,-0.41278934478759766
1728905904123588400,12.09658837890625,0.1097569465637207,0.1675441861152649,-0.57012939453125
1728905904133587000,12.1065869140625,-0.12920808792114258,0.20998483896255493,-0.6151008605957031
1728905904143585800,12.116585693359376,-0.16895198822021484,0.290441632270813,-0.7819595336914062
1728905904153584600,12.126584716796875,-0.1667160987854004,0.3123345375061035,-0.7785100936889648
1728905904163583200,12.136583251953125,-0.08457398414611816,0.5437194108963013,-1.2872109413146973
1728905904173582000,12.14658203125,-0.15549635887145996,0.755092978477478,-1.4774870872497559
1728905904183580700,12.15658056640625,-0.26538658142089844,0.8726552724838257,-1.6536626815795898
1728905904193579500,12.16657958984375,-0.45626306533813477,1.1551841497421265,-1.5670762062072754
1728905904203578000,12.176578125,-0.45790624618530273,1.175077199935913,-1.5649256706237793
1728905904213577000,12.186576904296874,-0.522169828414917,1.334241271018982,-1.4151525497436523
1728905904223575800,12.196575927734376,-0.27632761001586914,1.5184882879257202,-0.6486167907714844
1728905904233574400,12.206574462890625,-0.28685927391052246,1.5417484045028687,-0.6487617492675781
1728905904243573500,12.216573486328125,-0.5970911979675293,1.3374618291854858,0.3322286605834961
1728905904253573000,12.226572998046874,-0.6922147274017334,1.0802857875823975,0.7101516723632812
1728905904263572700,12.23657275390625,-0.6942269802093506,0.6788891553878784,0.9024009704589844
1728905904273572000,12.246572021484376,-0.9481067657470703,0.37273550033569336,1.0509538650512695
1728905904283571000,12.256571044921875,-1.175443172454834,0.008494257926940918,0.8375844955444336
1728905904293569800,12.26656982421875,-1.1738629341125488,0.04178917407989502,0.8434581756591797
1728905904303568400,12.276568359375,-1.2833962440490723,-0.5982087850570679,0.5561370849609375
1728905904313567200,12.286567138671876,-1.2749714851379395,-0.5668621063232422,0.5641498565673828
1728905904323566000,12.296566162109375,-1.4023890495300293,-0.8724445104598999,0.7326107025146484
1728905904333564700,12.306564697265625,-1.3922200202941895,-0.8463402986526489,0.7405223846435547
1728905904343563300,12.316563232421874,-0.15306806564331055,-0.5701168775558472,0.24569129943847656
1728905904353562000,12.32656201171875,0.5130164623260498,-0.3415259122848511,-0.14130592346191406
1728905904363560700,12.336560791015625,0.8170757293701172,-0.11296772956848145,-0.6242523193359375
1728905904373559600,12.3465595703125,0.8359084129333496,-0.10710465908050537,-0.6168737411499023
1728905904383558400,12.356558349609376,0.8534867763519287,0.21270954608917236,-1.2179450988769531
1728905904393557000,12.366556884765625,0.6631407737731934,0.2138768434524536,-1.1896014213562012
1728905904403555800,12.376555908203125,0.32917237281799316,0.1584235429763794,-1.0273199081420898
1728905904413554400,12.386554443359374,0.34100341796875,0.17392468452453613,-1.020369529724121
1728905904423553300,12.39655322265625,0.0516657829284668,0.11088764667510986,-0.7210168838500977
1728905904433552000,12.4065517578125,-0.053981781005859375,0.10257518291473389,-0.648524284362793
1728905904443550700,12.41655078125,-0.24697494506835938,0.19219696521759033,-0.6426410675048828
1728905904453549300,12.42654931640625,-0.23171687126159668,0.20713579654693604,-0.6344022750854492
1728905904463548200,12.436548095703126,0.17959856986999512,0.1665642261505127,-0.633021354675293
1728905904473547000,12.446547119140625,-0.011941194534301758,0.1051323413848877,-0.545048713684082
1728905904483545600,12.456545654296875,-0.13331818580627441,-0.05917489528656006,-0.24646472930908203
1728905904493544400,12.46654443359375,-0.11981415748596191,-0.0398099422454834,-0.23770618438720703
1728905904503543000,12.47654296875,-0.3343479633331299,-0.3329956531524658,0.27630043029785156
1728905904513542000,12.4865419921875,-0.44997620582580566,-0.35705745220184326,0.6487321853637695
1728905904523540700,12.496540771484375,-0.3097658157348633,-0.3121291399002075,0.874974250793457
1728905904533539300,12.506539306640626,-0.2978057861328125,-0.2927720546722412,0.883448600769043
1728905904543538200,12.5165380859375,-0.023943662643432617,-0.07621979713439941,1.1673307418823242
1728905904553537000,12.526537109375,0.14841604232788086,-0.048105835914611816,1.1569433212280273
1728905904563535600,12.53653564453125,-0.002451658248901367,-0.0950930118560791,1.151209831237793
1728905904573534500,12.546534423828126,-0.23165655136108398,-0.04618513584136963,1.1305713653564453
1728905904583533300,12.556533203125,-0.03548097610473633,-0.002300262451171875,0.9204931259155273
1728905904593532000,12.566531982421875,-0.02256011962890625,0.011693954467773438,0.9284696578979492
1728905904603530800,12.57653076171875,0.5247015953063965,0.26656174659729004,0.4312887191772461
1728905904613529300,12.586529296875,0.5391831398010254,0.27840733528137207,0.4394655227661133
1728905904623528200,12.596528076171875,0.8768022060394287,0.6430830955505371,-0.13686656951904297
1728905904633527000,12.606527099609375,0.846646785736084,0.9009891748428345,-0.3525428771972656
1728905904643525600,12.616525634765624,1.1705033779144287,1.1355571746826172,-0.4954051971435547
1728905904653524500,12.6265244140625,1.1789684295654297,1.140338659286499,-0.49101829528808594
1728905904663523300,12.6365234375,0.9600687026977539,1.4360930919647217,-0.4887361526489258
1728905904673522200,12.646522216796875,0.9589836597442627,1.440007209777832,-0.48824119567871094
1728905904683520800,12.656520751953124,1.0235819816589355,1.4632493257522583,-0.005513191223144531
1728905904693520000,12.666519775390626,1.362593173980713,1.4475796222686768,0.07450485229492188
1728905904703518700,12.676518798828125,1.5617774724960327,1.3718700408935547,0.1277303695678711
1728905904713517600,12.686517578125,1.5529366731643677,1.3757777214050293,0.12525653839111328
1728905904723516400,12.696516357421874,1.4733648300170898,1.091346263885498,0.4185924530029297
